
time,ax,ay,az,wx,wy,wz,Latitude,Longitude,Speed (m/s),Altitude (m),
0.032319,0.0000,0.0000,0.0000,0.0000,0.0000,0.0000,0.00000000,0.00000000,0.00000000,870.60000000,
0.033554,0.0000,0.0000,0.0000,-0.5376,0.0086,0.7862,12.84374833,77.66293000,0.00000000,870.60000000,
0.053491,0.0000,0.0000,0.0000,-0.9016,0.0269,0.8192,12.84374833,77.66293000,0.00000000,870.60000000,
0.072229,0.0000,0.0000,0.0000,-0.9016,0.0269,0.8192,12.84374833,77.66293000,0.00000000,870.60000000,
0.073131,-0.2589,0.5026,1.0045,-0.9016,0.0269,0.8192,12.84374833,77.66293000,0.00000000,870.60000000,
0.073889,-0.2589,0.5026,1.0045,-0.9114,0.2217,0.6555,12.84374833,77.66293000,0.00000000,870.60000000,
0.098149,-0.2589,0.5026,1.0045,-0.7330,0.0977,0.6903,12.84374833,77.66293000,0.00000000,870.60000000,
0.111615,-0.2589,0.5026,1.0045,-0.7330,0.0977,0.6903,12.84374833,77.66293000,0.00000000,870.60000000,
0.112487,0.5799,-0.7859,-0.3389,-0.7330,0.0977,0.6903,12.84374833,77.66293000,0.00000000,870.60000000,
0.113399,0.5799,-0.7859,-0.3389,-0.5528,0.2443,0.7135,12.84374833,77.66293000,0.00000000,870.60000000,
0.133858,0.5799,-0.7859,-0.3389,-0.5620,0.4404,0.7312,12.84374833,77.66293000,0.00000000,870.60000000,
0.150958,0.5799,-0.7859,-0.3389,-0.5620,0.4404,0.7312,12.84374833,77.66293000,0.00000000,870.60000000,
0.152067,0.2756,-0.5570,-0.9930,-0.5620,0.4404,0.7312,12.84374833,77.66293000,0.00000000,870.60000000,
0.153075,0.2756,-0.5570,-0.9930,-0.8876,0.0415,0.6640,12.84374833,77.66293000,0.00000000,870.60000000,
0.177602,0.2756,-0.5570,-0.9930,-1.2956,0.0428,0.5205,12.84374833,77.66293000,0.00000000,870.60000000,
0.191966,0.2756,-0.5570,-0.9930,-1.2956,0.0428,0.5205,12.84374833,77.66293000,0.00000000,870.60000000,
0.192885,0.9558,-0.6080,-0.4285,-1.2956,0.0428,0.5205,12.84374833,77.66293000,0.00000000,870.60000000,
0.193882,0.9558,-0.6080,-0.4285,-1.5162,0.3042,0.3213,12.84374833,77.66293000,0.00000000,870.60000000,
0.214736,0.9558,-0.6080,-0.4285,-1.3787,0.3971,0.2364,12.84374833,77.66293000,0.00000000,870.60000000,
0.231790,0.9558,-0.6080,-0.4285,-1.3787,0.3971,0.2364,12.84374833,77.66293000,0.00000000,870.60000000,
0.233214,-1.2846,-0.3867,0.9569,-1.3787,0.3971,0.2364,12.84374833,77.66293000,0.00000000,870.60000000,
0.234397,-1.2846,-0.3867,0.9569,-1.0733,-0.2388,0.3916,12.84374833,77.66293000,0.00000000,870.60000000,
0.260391,-1.2846,-0.3867,0.9569,-0.6933,-0.9896,0.7190,12.84374833,77.66293000,0.00000000,870.60000000,
0.271530,-1.2846,-0.3867,0.9569,-0.6933,-0.9896,0.7190,12.84374833,77.66293000,0.00000000,870.60000000,
0.272527,-1.8879,-0.3524,4.2857,-0.6933,-0.9896,0.7190,12.84374833,77.66293000,0.00000000,870.60000000,
0.273478,-1.8879,-0.3524,4.2857,0.0513,-1.9487,1.7355,12.84374833,77.66293000,0.00000000,870.60000000,
0.293924,-1.8879,-0.3524,4.2857,0.8381,-2.0452,2.4221,12.84374833,77.66293000,0.00000000,870.60000000,
0.312294,-1.8879,-0.3524,4.2857,0.8381,-2.0452,2.4221,12.84374833,77.66293000,0.00000000,870.60000000,
0.313027,2.4780,-1.8077,1.0506,0.8381,-2.0452,2.4221,12.84374833,77.66293000,0.00000000,870.60000000,
0.313742,2.4780,-1.8077,1.0506,1.3946,-1.9761,2.1289,12.84374833,77.66293000,0.00000000,870.60000000,
0.338330,2.4780,-1.8077,1.0506,1.5986,-1.3494,1.1759,12.84374833,77.66293000,0.00000000,870.60000000,
0.351830,2.4780,-1.8077,1.0506,1.5986,-1.3494,1.1759,12.84374833,77.66293000,0.00000000,870.60000000,
0.353235,2.7164,-2.5391,0.3389,1.5986,-1.3494,1.1759,12.84374833,77.66293000,0.00000000,870.60000000,
0.354385,2.7164,-2.5391,0.3389,1.7538,0.4343,0.1533,12.84374833,77.66293000,0.00000000,870.60000000,
0.373993,2.7164,-2.5391,0.3389,2.1771,1.5919,-0.1839,12.84374833,77.66293000,0.00000000,870.60000000,
0.392072,2.7164,-2.5391,0.3389,2.1771,1.5919,-0.1839,12.84374833,77.66293000,0.00000000,870.60000000,
0.393451,0.8972,1.8873,3.3439,2.1771,1.5919,-0.1839,12.84374833,77.66293000,0.00000000,870.60000000,
0.394593,0.8972,1.8873,3.3439,2.7855,1.9994,-0.0055,12.84374833,77.66293000,0.00000000,870.60000000,
0.418324,0.8972,1.8873,3.3439,1.9273,-0.8515,0.1210,12.84374833,77.66293000,0.00000000,870.60000000,
0.431569,0.8972,1.8873,3.3439,1.9273,-0.8515,0.1210,12.84374833,77.66293000,0.00000000,870.60000000,
0.432446,0.6482,1.9424,-1.6055,1.9273,-0.8515,0.1210,12.84374833,77.66293000,0.00000000,870.60000000,
0.433364,0.6482,1.9424,-1.6055,1.4471,-0.7691,-0.1888,12.84374833,77.66293000,0.00000000,870.60000000,
0.453788,0.6482,1.9424,-1.6055,0.9633,-0.0067,-0.2230,12.84374833,77.66293000,0.00000000,870.60000000,
0.471800,0.6482,1.9424,-1.6055,0.9633,-0.0067,-0.2230,12.84374833,77.66293000,0.00000000,870.60000000,
0.472757,0.6111,1.5685,-2.1752,0.9633,-0.0067,-0.2230,12.84374833,77.66293000,0.00000000,870.60000000,
0.473651,0.6111,1.5685,-2.1752,0.2529,-0.0507,0.0874,12.84374833,77.66293000,0.00000000,870.60000000,
0.498180,0.6111,1.5685,-2.1752,-0.0391,0.1985,0.1662,12.84374833,77.66293000,0.00000000,870.60000000,
0.511627,0.6111,1.5685,-2.1752,-0.0391,0.1985,0.1662,12.84374833,77.66293000,0.00000000,870.60000000,
0.512512,2.7003,0.2350,-0.5363,-0.0391,0.1985,0.1662,12.84374833,77.66293000,0.00000000,870.60000000,
0.513403,2.7003,0.2350,-0.5363,0.0263,0.4264,-0.1600,12.84374833,77.66293000,0.00000000,870.60000000,
0.533572,2.7003,0.2350,-0.5363,0.2065,0.6188,-0.3085,12.84374833,77.66293000,0.00000000,870.60000000,
0.552470,2.7003,0.2350,-0.5363,0.2065,0.6188,-0.3085,12.84374833,77.66293000,0.00000000,870.60000000,
0.553350,2.7003,0.2350,-0.5363,0.4007,0.5846,-0.0788,12.84374833,77.66293000,0.00000000,870.60000000,
0.554246,0.8252,0.9270,-0.4178,0.4007,0.5846,-0.0788,12.84374833,77.66293000,0.00000000,870.60000000,
0.578315,0.8252,0.9270,-0.4178,0.4258,0.7410,0.0727,12.84374833,77.66293000,0.00000000,870.60000000,
0.591852,0.8252,0.9270,-0.4178,0.4258,0.7410,0.0727,12.84374833,77.66293000,0.00000000,870.60000000,
0.593872,1.8220,0.7538,-0.7261,0.4258,0.7410,0.0727,12.84374833,77.66293000,0.00000000,870.60000000,
0.595554,1.8220,0.7538,-0.7261,0.2828,0.8540,-0.0544,12.84374833,77.66293000,0.00000000,870.60000000,
0.614214,1.8220,0.7538,-0.7261,0.2804,1.0030,-0.0941,12.84374833,77.66293000,0.00000000,870.60000000,
0.632147,1.8220,0.7538,-0.7261,0.2804,1.0030,-0.0941,12.84374833,77.66293000,0.00000000,870.60000000,
0.633771,0.4815,1.1680,0.2816,0.2804,1.0030,-0.0941,12.84374833,77.66293000,0.00000000,870.60000000,
0.634947,0.4815,1.1680,0.2816,0.2938,0.6665,-0.0464,12.84374833,77.66293000,0.00000000,870.60000000,
0.658526,0.4815,1.1680,0.2816,0.4716,0.0867,0.1833,12.84374833,77.66293000,0.00000000,870.60000000,
0.673772,0.4815,1.1680,0.2816,0.4716,0.0867,0.1833,12.84374833,77.66293000,0.00000000,870.60000000,
0.675425,0.6611,0.6365,-1.0019,0.4716,0.0867,0.1833,12.84374833,77.66293000,0.00000000,870.60000000,
0.676972,0.6611,0.6365,-1.0019,0.3201,0.2993,0.3018,12.84374833,77.66293000,0.00000000,870.60000000,
0.694337,0.6611,0.6365,-1.0019,0.1949,0.3830,0.4191,12.84374833,77.66293000,0.00000000,870.60000000,
0.711927,0.6611,0.6365,-1.0019,0.1949,0.3830,0.4191,12.84374833,77.66293000,0.00000000,870.60000000,
0.713576,2.0418,1.1697,-2.1711,0.1949,0.3830,0.4191,12.84374833,77.66293000,0.00000000,870.60000000,
0.714863,2.0418,1.1697,-2.1711,0.0226,0.4905,0.2749,12.84374833,77.66293000,0.00000000,870.60000000,
0.739167,2.0418,1.1697,-2.1711,-0.0843,0.6121,0.0892,12.84374833,77.66293000,0.00000000,870.60000000,
0.752325,2.0418,1.1697,-2.1711,-0.0843,0.6121,0.0892,12.84374833,77.66293000,0.00000000,870.60000000,
0.753940,1.4202,1.0734,-2.8197,-0.0843,0.6121,0.0892,12.84374833,77.66293000,0.00000000,870.60000000,
0.755462,1.4202,1.0734,-2.8197,-0.2046,0.6909,0.0061,12.84374833,77.66293000,0.00000000,870.60000000,
0.773867,1.4202,1.0734,-2.8197,-0.4221,0.6970,0.0452,12.84374833,77.66293000,0.00000000,870.60000000,
0.792901,1.4202,1.0734,-2.8197,-0.4221,0.6970,0.0452,12.84374833,77.66293000,0.00000000,870.60000000,
0.796190,1.4202,1.0734,-2.8197,-0.6866,0.5834,0.0965,12.84374833,77.66293000,0.00000000,870.60000000,
0.800756,1.0446,1.0743,-2.8630,-0.6866,0.5834,0.0965,12.84374833,77.66293000,0.00000000,870.60000000,
0.818899,1.0446,1.0743,-2.8630,-0.7862,0.3048,0.1081,12.84374833,77.66293000,0.00000000,870.60000000,
0.832130,1.0446,1.0743,-2.8630,-0.7862,0.3048,0.1081,12.84374833,77.66293000,0.00000000,870.60000000,
0.834170,1.0446,1.0743,-2.8630,-0.6274,0.0104,0.1130,12.84374833,77.66293000,0.00000000,870.60000000,
0.835432,1.6295,0.9245,-0.5413,-0.6274,0.0104,0.1130,12.84374833,77.66293000,0.00000000,870.60000000,
0.856029,1.6295,0.9245,-0.5413,-0.4233,-0.1216,0.1301,12.84374833,77.66293000,0.00000000,870.60000000,
0.873148,1.6295,0.9245,-0.5413,-0.4233,-0.1216,0.1301,12.84374833,77.66293000,0.00000000,870.60000000,
0.875246,1.6295,0.9245,-0.5413,-0.3647,-0.1301,0.2107,12.84374833,77.66293000,0.00000000,870.60000000,
0.876863,1.4537,1.0006,-1.0110,-0.3647,-0.1301,0.2107,12.84374833,77.66293000,0.00000000,870.60000000,
0.898612,1.4537,1.0006,-1.0110,-0.4307,-0.1411,0.3354,12.84374833,77.66293000,0.00000000,870.60000000,
0.911953,1.4537,1.0006,-1.0110,-0.4307,-0.1411,0.3354,12.84374833,77.66293000,0.00000000,870.60000000,
0.913798,1.1872,1.0518,-0.3322,-0.4307,-0.1411,0.3354,12.84374833,77.66293000,0.00000000,870.60000000,
0.915085,1.1872,1.0518,-0.3322,-0.4111,-0.1735,0.4294,12.84374833,77.66293000,0.00000000,870.60000000,
0.934065,1.1872,1.0518,-0.3322,-0.3122,-0.0757,0.4520,12.84374833,77.66293000,0.00000000,870.60000000,
0.952592,1.1872,1.0518,-0.3322,-0.3122,-0.0757,0.4520,12.84374833,77.66293000,0.00000000,870.60000000,
0.954577,1.1872,1.0518,-0.3322,-0.3176,0.1692,0.4746,12.84374833,77.66293000,0.00000000,870.60000000,
0.956391,1.0530,1.1989,-0.7153,-0.3176,0.1692,0.4746,12.84374833,77.66293000,0.00000000,870.60000000,
0.978687,1.0530,1.1989,-0.7153,-0.4404,0.3793,0.5418,12.84374833,77.66293000,0.00000000,870.60000000,
0.992166,1.0530,1.1989,-0.7153,-0.4404,0.3793,0.5418,12.84374833,77.66293000,0.00000000,870.60000000,
0.993813,1.0530,1.1989,-0.7153,-0.5247,0.3757,0.5608,12.84374833,77.66293000,0.00000000,870.60000000,
0.995181,1.5789,1.5261,-0.5394,-0.5247,0.3757,0.5608,12.84374833,77.66293000,0.00000000,870.60000000,
1.014151,1.5789,1.5261,-0.5394,-0.4355,0.2364,0.4869,12.84374833,77.66293000,0.00000000,870.60000000,
1.032971,1.5789,1.5261,-0.5394,-0.4355,0.2364,0.4869,12.84374833,77.66293000,0.00000000,870.60000000,
1.035579,1.2559,0.9263,-0.6393,-0.4355,0.2364,0.4869,12.84374833,77.66293000,0.00000000,870.60000000,
1.036918,1.2559,0.9263,-0.6393,-0.3958,0.0929,0.4136,12.84374833,77.66293000,0.00000000,870.60000000,
1.058630,1.2559,0.9263,-0.6393,-0.5846,0.1600,0.4777,12.84374833,77.66293000,0.00000000,870.60000000,
1.073812,1.2559,0.9263,-0.6393,-0.5846,0.1600,0.4777,12.84374833,77.66293000,0.00000000,870.60000000,
1.075473,0.1290,0.6026,-0.4414,-0.5846,0.1600,0.4777,12.84374833,77.66293000,0.00000000,870.60000000,
1.076850,0.1290,0.6026,-0.4414,-0.8002,0.3903,0.6579,12.84374833,77.66293000,0.00000000,870.60000000,
1.095540,0.1290,0.6026,-0.4414,-0.8717,0.5400,0.7630,12.84374833,77.66293000,0.00000000,870.60000000,
1.112586,0.1290,0.6026,-0.4414,-0.8717,0.5400,0.7630,12.84374833,77.66293000,0.00000000,870.60000000,
1.114046,1.4674,1.3157,1.4199,-0.8717,0.5400,0.7630,12.84374833,77.66293000,0.00000000,870.60000000,
1.115472,1.4674,1.3157,1.4199,-0.7856,0.6145,0.5791,12.84374833,77.66293000,0.00000000,870.60000000,
1.138637,1.4674,1.3157,1.4199,-0.7013,0.5113,0.2792,12.84374833,77.66293000,0.00000000,870.60000000,
1.152074,1.4674,1.3157,1.4199,-0.7013,0.5113,0.2792,12.84374833,77.66293000,0.00000000,870.60000000,
1.153566,0.4807,1.4194,1.3303,-0.7013,0.5113,0.2792,12.84374833,77.66293000,0.00000000,870.60000000,
1.154702,0.4807,1.4194,1.3303,-0.5962,0.1869,0.1778,12.84374833,77.66293000,0.00000000,870.60000000,
1.174377,0.4807,1.4194,1.3303,-0.5272,-0.1057,0.2999,12.84374833,77.66293000,0.00000000,870.60000000,
1.192111,0.4807,1.4194,1.3303,-0.5272,-0.1057,0.2999,12.84374833,77.66293000,0.00000000,870.60000000,
1.193709,0.1993,0.5732,0.7850,-0.5272,-0.1057,0.2999,12.84374833,77.66293000,0.00000000,870.60000000,
1.194992,0.1993,0.5732,0.7850,-0.5076,-0.2028,0.5198,12.84374833,77.66293000,0.00000000,870.60000000,
1.220145,0.1993,0.5732,0.7850,-0.3549,-0.2211,0.6927,12.84374833,77.66293000,0.00000000,870.60000000,
1.232237,0.1993,0.5732,0.7850,-0.3549,-0.2211,0.6927,12.84374833,77.66293000,0.00000000,870.60000000,
1.233588,0.1993,0.5732,0.7850,-0.0483,-0.2645,0.7550,12.84374833,77.66293000,0.00000000,870.60000000,
1.234715,0.6297,0.2560,1.0391,-0.0483,-0.2645,0.7550,12.84374833,77.66293000,0.00000000,870.60000000,
1.256437,0.6297,0.2560,1.0391,0.1998,-0.1399,0.6371,12.84374833,77.66293000,0.00000000,870.60000000,
1.278520,0.6297,0.2560,1.0391,0.1998,-0.1399,0.6371,12.84374833,77.66293000,0.00000000,870.60000000,
1.279962,0.6297,0.2560,1.0391,0.0342,0.0855,0.4197,12.84374833,77.66293000,0.00000000,870.60000000,
1.281109,0.5080,0.3108,-1.3203,0.0342,0.0855,0.4197,12.84374833,77.66293000,0.00000000,870.60000000,
1.299327,0.5080,0.3108,-1.3203,-0.4032,0.2688,0.3567,12.84374833,77.66293000,0.00000000,870.60000000,
1.312141,0.5080,0.3108,-1.3203,-0.4032,0.2688,0.3567,12.84374833,77.66293000,0.00000000,870.60000000,
1.313682,-0.3585,0.3066,0.1381,-0.4032,0.2688,0.3567,12.84374833,77.66293000,0.00000000,870.60000000,
1.314902,-0.3585,0.3066,0.1381,-0.6512,0.2669,0.4398,12.84374833,77.66293000,0.00000000,870.60000000,
1.334117,-0.3585,0.3066,0.1381,-0.5082,0.1539,0.4905,12.84374833,77.66293000,0.00000000,870.60000000,
1.352390,-0.3585,0.3066,0.1381,-0.5082,0.1539,0.4905,12.84374833,77.66293000,0.00000000,870.60000000,
1.354035,-0.0364,-0.1612,1.1969,-0.5082,0.1539,0.4905,12.84374833,77.66293000,0.00000000,870.60000000,
1.355443,-0.0364,-0.1612,1.1969,-0.1918,0.0214,0.5052,12.84374833,77.66293000,0.00000000,870.60000000,
1.379640,-0.0364,-0.1612,1.1969,-0.0476,-0.1723,0.5388,12.84374833,77.66293000,0.00000000,870.60000000,
1.392111,-0.0364,-0.1612,1.1969,-0.0476,-0.1723,0.5388,12.84374833,77.66293000,0.00000000,870.60000000,
1.393984,0.8231,0.0093,0.2409,-0.0476,-0.1723,0.5388,12.84374833,77.66293000,0.00000000,870.60000000,
1.395508,0.8231,0.0093,0.2409,-0.0171,-0.1912,0.5082,12.84374833,77.66293000,0.00000000,870.60000000,
1.414334,0.8231,0.0093,0.2409,-0.0250,-0.0977,0.4172,12.84374833,77.66293000,0.00000000,870.60000000,
1.432238,0.8231,0.0093,0.2409,-0.0250,-0.0977,0.4172,12.84374833,77.66293000,0.00000000,870.60000000,
1.433707,0.8231,0.0093,0.2409,-0.0568,0.0531,0.3238,12.84374833,77.66293000,0.00000000,870.60000000,
1.434793,0.8360,-0.0739,-0.6665,-0.0568,0.0531,0.3238,12.84374833,77.66293000,0.00000000,870.60000000,
1.458958,0.8360,-0.0739,-0.6665,-0.1350,0.1912,0.2700,12.84374833,77.66293000,0.00000000,870.60000000,
1.473662,0.8360,-0.0739,-0.6665,-0.1350,0.1912,0.2700,12.84374833,77.66293000,0.00000000,870.60000000,
1.475260,0.5775,0.3496,-1.1667,-0.1350,0.1912,0.2700,12.84374833,77.66293000,0.00000000,870.60000000,
1.477023,0.5775,0.3496,-1.1667,-0.2517,0.3341,0.2309,12.84374833,77.66293000,0.00000000,870.60000000,
1.494922,0.5775,0.3496,-1.1667,-0.3207,0.3836,0.2327,12.84374833,77.66293000,0.00000000,870.60000000,
1.513279,0.5775,0.3496,-1.1667,-0.3207,0.3836,0.2327,12.84374833,77.66293000,0.00000000,870.60000000,
1.514979,0.5775,0.3496,-1.1667,-0.2859,0.1967,0.2010,12.84374833,77.66293000,0.00000000,870.60000000,
1.516335,0.8851,0.3725,-0.2000,-0.2859,0.1967,0.2010,12.84374833,77.66293000,0.00000000,870.60000000,
1.539607,0.8851,0.3725,-0.2000,-0.1142,0.1631,0.1796,12.84374833,77.66293000,0.00000000,870.60000000,
1.552307,0.8851,0.3725,-0.2000,-0.1142,0.1631,0.1796,12.84374833,77.66293000,0.00000000,870.60000000,
1.554059,0.6900,0.2051,0.6247,-0.1142,0.1631,0.1796,12.84374833,77.66293000,0.00000000,870.60000000,
1.555975,0.6900,0.2051,0.6247,0.0947,0.1283,0.2065,12.84374833,77.66293000,0.00000000,870.60000000,
1.574921,0.6900,0.2051,0.6247,0.2297,0.1570,0.1967,12.84374833,77.66293000,0.00000000,870.60000000,
1.592199,0.6900,0.2051,0.6247,0.2297,0.1570,0.1967,12.84374833,77.66293000,0.00000000,870.60000000,
1.593837,0.6063,0.3547,0.0498,0.2297,0.1570,0.1967,12.84374833,77.66293000,0.00000000,870.60000000,
1.595271,0.6063,0.3547,0.0498,0.2932,0.1888,0.1991,12.84374833,77.66293000,0.00000000,870.60000000,
1.619058,0.6063,0.3547,0.0498,0.2865,0.2279,0.1936,12.84374833,77.66293000,0.00000000,870.60000000,
1.632174,0.6063,0.3547,0.0498,0.2865,0.2279,0.1936,12.84374833,77.66293000,0.00000000,870.60000000,
1.633639,0.6357,0.2490,0.1520,0.2865,0.2279,0.1936,12.84374833,77.66293000,0.00000000,870.60000000,
1.634811,0.6357,0.2490,0.1520,0.2370,0.0861,0.2150,12.84374833,77.66293000,0.00000000,870.60000000,
1.654699,0.6357,0.2490,0.1520,0.2156,-0.2022,0.1625,12.84374833,77.66293000,0.00000000,870.60000000,
1.672765,0.6357,0.2490,0.1520,0.2156,-0.2022,0.1625,12.84374833,77.66293000,0.00000000,870.60000000,
1.674378,0.9572,0.2539,1.2553,0.2156,-0.2022,0.1625,12.84374833,77.66293000,0.00000000,870.60000000,
1.675651,0.9572,0.2539,1.2553,0.2315,-0.4441,0.0702,12.84374833,77.66293000,0.00000000,870.60000000,
1.698697,0.9572,0.2539,1.2553,0.3262,-0.5180,0.1020,12.84374833,77.66293000,0.00000000,870.60000000,
1.711975,0.9572,0.2539,1.2553,0.3262,-0.5180,0.1020,12.84374833,77.66293000,0.00000000,870.60000000,
1.713669,0.6936,-0.0418,1.7175,0.3262,-0.5180,0.1020,12.84374833,77.66293000,0.00000000,870.60000000,
1.715508,0.6936,-0.0418,1.7175,0.5009,-0.3403,0.2199,12.84374833,77.66293000,0.00000000,870.60000000,
1.734630,0.6936,-0.0418,1.7175,0.4795,-0.1161,0.2657,12.84374833,77.66293000,0.00000000,870.60000000,
1.753097,0.6936,-0.0418,1.7175,0.4795,-0.1161,0.2657,12.84374833,77.66293000,0.00000000,870.60000000,
1.754807,1.7812,0.4285,0.0114,0.4795,-0.1161,0.2657,12.84374833,77.66293000,0.00000000,870.60000000,
1.756065,1.7812,0.4285,0.0114,0.1032,0.0037,0.1368,12.84374833,77.66293000,0.00000000,870.60000000,
1.779251,1.7812,0.4285,0.0114,-0.4826,0.1148,-0.1405,12.84374833,77.66293000,0.00000000,870.60000000,
1.793254,1.7812,0.4285,0.0114,-0.4826,0.1148,-0.1405,12.84374833,77.66293000,0.00000000,870.60000000,
1.794762,1.7116,-0.0464,1.2985,-0.4826,0.1148,-0.1405,12.84374833,77.66293000,0.00000000,870.60000000,
1.796258,1.7116,-0.0464,1.2985,-0.7685,0.2816,-0.3036,12.84374833,77.66293000,0.00000000,870.60000000,
1.814460,1.7116,-0.0464,1.2985,-0.5253,0.3286,-0.2541,12.84374833,77.66293000,0.00000000,870.60000000,
1.831909,1.7116,-0.0464,1.2985,-0.5253,0.3286,-0.2541,12.84374833,77.66293000,0.00000000,870.60000000,
1.833649,1.7116,-0.0464,1.2985,0.0177,0.1142,-0.1045,12.84374833,77.66293000,0.00000000,870.60000000,
1.834999,0.4855,-0.3581,1.8677,0.0177,0.1142,-0.1045,12.84374833,77.66293000,0.00000000,870.60000000,
1.859898,0.4855,-0.3581,1.8677,0.3940,-0.2419,-0.0287,12.84374833,77.66293000,0.00000000,870.60000000,
1.872548,0.4855,-0.3581,1.8677,0.3940,-0.2419,-0.0287,12.84374833,77.66293000,0.00000000,870.60000000,
1.874348,0.9339,-0.2015,-0.6909,0.3940,-0.2419,-0.0287,12.84374833,77.66293000,0.00000000,870.60000000,
1.875800,0.9339,-0.2015,-0.6909,0.3122,-0.3488,-0.0861,12.84374833,77.66293000,0.00000000,870.60000000,
1.893884,0.9339,-0.2015,-0.6909,-0.0354,-0.0733,-0.1442,12.84374833,77.66293000,0.00000000,870.60000000,
1.912382,0.9339,-0.2015,-0.6909,-0.0354,-0.0733,-0.1442,12.84374833,77.66293000,0.00000000,870.60000000,
1.913913,0.9151,-0.5773,-0.3532,-0.0354,-0.0733,-0.1442,12.84374833,77.66293000,0.00000000,870.60000000,
1.915173,0.9151,-0.5773,-0.3532,-0.2254,0.3256,-0.1478,12.84374833,77.66293000,0.00000000,870.60000000,
1.938540,0.9151,-0.5773,-0.3532,-0.2266,0.3665,-0.1405,12.84374833,77.66293000,0.00000000,870.60000000,
1.951901,0.9151,-0.5773,-0.3532,-0.2266,0.3665,-0.1405,12.84374833,77.66293000,0.00000000,870.60000000,
1.953829,0.9146,-0.4112,-0.5698,-0.2266,0.3665,-0.1405,12.84374833,77.66293000,0.00000000,870.60000000,
1.955204,0.9146,-0.4112,-0.5698,-0.1497,0.1533,-0.1246,12.84374833,77.66293000,0.00000000,870.60000000,
1.973949,0.9146,-0.4112,-0.5698,-0.0690,-0.0983,-0.1594,12.84374833,77.66293000,0.00000000,870.60000000,
1.993964,0.9146,-0.4112,-0.5698,-0.0690,-0.0983,-0.1594,12.84374833,77.66293000,0.00000000,870.60000000,
1.995765,0.8527,0.0208,-1.1574,-0.0690,-0.0983,-0.1594,12.84374833,77.66293000,0.00000000,870.60000000,
1.997370,0.8527,0.0208,-1.1574,0.0202,-0.1735,-0.2498,12.84374833,77.66293000,0.00000000,870.60000000,
2.018990,0.8527,0.0208,-1.1574,0.0183,-0.0672,-0.3012,12.84374833,77.66293000,0.00000000,870.60000000,
2.032064,0.8527,0.0208,-1.1574,0.0183,-0.0672,-0.3012,12.84374833,77.66293000,0.00000000,870.60000000,
2.035606,-0.1842,0.0024,-2.3773,0.0183,-0.0672,-0.3012,12.84374833,77.66293000,0.00000000,870.60000000,
2.037990,-0.1842,0.0024,-2.3773,-0.1100,0.0574,-0.2254,12.84374833,77.66293000,0.00000000,870.60000000,
2.054124,-0.1842,0.0024,-2.3773,-0.2242,0.0452,-0.0800,12.84374833,77.66293000,0.00000000,870.60000000,
2.073050,-0.1842,0.0024,-2.3773,-0.2242,0.0452,-0.0800,12.84374833,77.66293000,0.00000000,870.60000000,
2.074824,-0.1842,0.0024,-2.3773,-0.1393,-0.0257,-0.0153,12.84374833,77.66293000,0.00000000,870.60000000,
2.076497,0.5808,0.4139,-0.7888,-0.1393,-0.0257,-0.0153,12.84374833,77.66293000,0.00000000,870.60000000,
2.098404,0.5808,0.4139,-0.7888,0.0421,-0.1228,-0.0794,12.84374833,77.66293000,0.00000000,870.60000000,
2.111757,0.5808,0.4139,-0.7888,0.0421,-0.1228,-0.0794,12.84374833,77.66293000,0.00000000,870.60000000,
2.112586,0.7790,0.7085,-0.9588,0.0421,-0.1228,-0.0794,12.84374833,77.66293000,0.00000000,870.60000000,
2.113485,0.7790,0.7085,-0.9588,0.1106,-0.1374,-0.1692,12.84374833,77.66293000,0.00000000,870.60000000,
2.134104,0.7790,0.7085,-0.9588,0.0110,-0.1161,-0.1344,12.84374833,77.66293000,0.00000000,870.60000000,
2.151994,0.7790,0.7085,-0.9588,0.0110,-0.1161,-0.1344,12.84374833,77.66293000,0.00000000,870.60000000,
2.153691,0.6103,0.8774,0.0046,0.0110,-0.1161,-0.1344,12.84374833,77.66293000,0.00000000,870.60000000,
2.155246,0.6103,0.8774,0.0046,0.0073,-0.0715,0.0208,12.84374833,77.66293000,0.00000000,870.60000000,
2.178785,0.6103,0.8774,0.0046,0.1643,-0.0483,0.1197,12.84374833,77.66293000,0.00000000,870.60000000,
2.191956,0.6103,0.8774,0.0046,0.1643,-0.0483,0.1197,12.84374833,77.66293000,0.00000000,870.60000000,
2.195095,1.3026,1.0673,0.3005,0.1643,-0.0483,0.1197,12.84374833,77.66293000,0.00000000,870.60000000,
2.196541,1.3026,1.0673,0.3005,0.3842,0.0354,0.1014,12.84374833,77.66293000,0.00000000,870.60000000,
2.213892,1.3026,1.0673,0.3005,0.4142,0.0727,0.0024,12.84374833,77.66293000,0.00000000,870.60000000,
2.232764,1.3026,1.0673,0.3005,0.4142,0.0727,0.0024,12.84374833,77.66293000,0.00000000,870.60000000,
2.234527,1.0457,1.4792,-0.3771,0.4142,0.0727,0.0024,12.84374833,77.66293000,0.00000000,870.60000000,
2.237304,1.0457,1.4792,-0.3771,0.2798,0.0806,-0.1210,12.84374833,77.66293000,0.00000000,870.60000000,
2.261438,1.0457,1.4792,-0.3771,0.1362,0.0910,-0.2114,12.84374833,77.66293000,0.00000000,858.30000000,
2.273252,1.0457,1.4792,-0.3771,0.1362,0.0910,-0.2114,12.84374167,77.66257833,0.00000000,858.30000000,
2.275604,0.2990,0.6741,0.5566,0.1362,0.0910,-0.2114,12.84374167,77.66257833,0.00000000,858.30000000,
2.277326,0.2990,0.6741,0.5566,0.0220,0.2132,-0.1698,12.84374167,77.66257833,0.00000000,858.30000000,
2.296148,0.2990,0.6741,0.5566,0.0220,0.2132,-0.1698,12.84374167,77.66257833,0.00000000,858.30000000,
2.297746,0.1807,0.4564,0.6987,0.0220,0.2132,-0.1698,12.84374167,77.66257833,0.00000000,858.30000000,
2.299254,0.1807,0.4564,0.6987,0.0055,0.4392,-0.0556,12.84374167,77.66257833,0.00000000,858.30000000,
2.312360,0.1807,0.4564,0.6987,0.0055,0.4392,-0.0556,12.84374167,77.66257833,0.00000000,858.30000000,
2.314942,0.6158,0.4471,0.4694,0.0055,0.4392,-0.0556,12.84374167,77.66257833,0.00000000,858.30000000,
2.316718,0.6158,0.4471,0.4694,-0.1106,0.3732,-0.0739,12.84374167,77.66257833,0.00000000,858.30000000,
2.340217,0.6158,0.4471,0.4694,-0.1106,0.3732,-0.0739,12.84374167,77.66257833,0.00000000,858.30000000,
2.342019,0.9868,0.6230,0.5790,-0.1106,0.3732,-0.0739,12.84374167,77.66257833,0.00000000,858.30000000,
2.343480,0.9868,0.6230,0.5790,-0.4380,0.0910,-0.2877,12.84374167,77.66257833,0.00000000,858.30000000,
2.353048,0.9868,0.6230,0.5790,-0.4380,0.0910,-0.2877,12.84374167,77.66257833,0.00000000,858.30000000,
2.354801,0.9868,0.6230,0.5790,-0.6952,0.0672,-0.4942,12.84374167,77.66257833,0.00000000,858.30000000,
2.357228,0.5625,-0.0137,1.0817,-0.6952,0.0672,-0.4942,12.84374167,77.66257833,0.00000000,858.30000000,
2.373904,0.5625,-0.0137,1.0817,-0.6952,0.0672,-0.4942,12.84374167,77.66257833,0.00000000,858.30000000,
2.374799,-0.3324,-0.6977,1.4849,-0.6952,0.0672,-0.4942,12.84374167,77.66257833,0.00000000,858.30000000,
2.375570,-0.3324,-0.6977,1.4849,-0.6982,0.3384,-0.5040,12.84374167,77.66257833,0.00000000,858.30000000,
2.395814,-0.3324,-0.6977,1.4849,-0.6982,0.3384,-0.5040,12.84374167,77.66257833,0.00000000,858.30000000,
2.397565,-1.2095,-1.0129,1.3014,-0.6982,0.3384,-0.5040,12.84374167,77.66257833,0.00000000,858.30000000,
2.399126,-1.2095,-1.0129,1.3014,-0.4337,0.5779,-0.2553,12.84374167,77.66257833,0.00000000,858.30000000,
2.418671,-1.2095,-1.0129,1.3014,-0.4337,0.5779,-0.2553,12.84374167,77.66257833,0.00000000,858.30000000,
2.419790,-1.2095,-1.0129,1.3014,-0.0599,0.5602,0.0867,12.84374167,77.66257833,0.00000000,858.30000000,
2.420464,-1.0700,-0.8768,0.4312,-0.0599,0.5602,0.0867,12.84374167,77.66257833,0.00000000,858.30000000,
2.438051,-1.0700,-0.8768,0.4312,-0.0599,0.5602,0.0867,12.84374167,77.66257833,0.00000000,858.30000000,
2.440899,-0.6450,-0.3968,-0.7284,-0.0599,0.5602,0.0867,12.84374167,77.66257833,0.00000000,858.30000000,
2.442656,-0.6450,-0.3968,-0.7284,0.1759,0.3488,0.2859,12.84374167,77.66257833,0.00000000,858.30000000,
2.456465,-0.6450,-0.3968,-0.7284,0.1759,0.3488,0.2859,12.84374167,77.66257833,0.00000000,858.30000000,
2.458455,-0.3560,-0.0254,-1.6269,0.1759,0.3488,0.2859,12.84374167,77.66257833,0.00000000,858.30000000,
2.460039,-0.3560,-0.0254,-1.6269,0.1509,0.0696,0.3109,12.84374167,77.66257833,0.00000000,858.30000000,
2.473816,-0.3560,-0.0254,-1.6269,0.1509,0.0696,0.3109,12.84374167,77.66257833,0.00000000,858.30000000,
2.477263,-0.3987,-0.0328,-1.9202,0.1509,0.0696,0.3109,12.84374167,77.66257833,0.00000000,858.30000000,
2.480102,-0.3987,-0.0328,-1.9202,-0.0843,-0.0574,0.2505,12.84374167,77.66257833,0.00000000,858.30000000,
2.498638,-0.3987,-0.0328,-1.9202,-0.0843,-0.0574,0.2505,12.84374167,77.66257833,0.00000000,858.30000000,
2.500452,-0.6037,-0.3228,-1.3492,-0.0843,-0.0574,0.2505,12.84374167,77.66257833,0.00000000,858.30000000,
2.501890,-0.6037,-0.3228,-1.3492,-0.3519,-0.0250,0.2749,12.84374167,77.66257833,0.00000000,858.30000000,
2.512858,-0.6037,-0.3228,-1.3492,-0.3519,-0.0250,0.2749,12.84374167,77.66257833,0.00000000,858.30000000,
2.514485,-0.7042,-0.5463,-0.4212,-0.3519,-0.0250,0.2749,12.84374167,77.66257833,0.00000000,858.30000000,
2.516023,-0.7042,-0.5463,-0.4212,-0.4557,-0.0379,0.3971,12.84374167,77.66257833,0.00000000,858.30000000,
2.534567,-0.7042,-0.5463,-0.4212,-0.4557,-0.0379,0.3971,12.84374167,77.66257833,0.00000000,858.30000000,
2.536249,-0.4160,-0.7368,0.2878,-0.4557,-0.0379,0.3971,12.84374167,77.66257833,0.00000000,858.30000000,
2.537641,-0.4160,-0.7368,0.2878,-0.4038,-0.2040,0.4960,12.84374167,77.66257833,0.00000000,858.30000000,
2.551957,-0.4160,-0.7368,0.2878,-0.4038,-0.2040,0.4960,12.84374167,77.66257833,0.00000000,858.30000000,
2.553739,-0.1600,-0.6991,0.5481,-0.4038,-0.2040,0.4960,12.84374167,77.66257833,0.00000000,858.30000000,
2.554978,-0.1600,-0.6991,0.5481,-0.2596,-0.4013,0.5498,12.84374167,77.66257833,0.00000000,858.30000000,
2.579026,-0.1600,-0.6991,0.5481,-0.2596,-0.4013,0.5498,12.84374167,77.66257833,0.00000000,858.30000000,
2.580691,0.3251,-0.6325,0.1271,-0.2596,-0.4013,0.5498,12.84374167,77.66257833,0.00000000,858.30000000,
2.582059,0.3251,-0.6325,0.1271,-0.1930,-0.5467,0.5015,12.84374167,77.66257833,0.00000000,858.30000000,
2.592361,0.3251,-0.6325,0.1271,-0.1930,-0.5467,0.5015,12.84374167,77.66257833,0.00000000,858.30000000,
2.594190,0.3172,-0.5863,-0.3473,-0.1930,-0.5467,0.5015,12.84374167,77.66257833,0.00000000,858.30000000,
2.595664,0.3172,-0.5863,-0.3473,-0.3164,-0.5113,0.4081,12.84374167,77.66257833,0.00000000,858.30000000,
2.614043,0.3172,-0.5863,-0.3473,-0.3164,-0.5113,0.4081,12.84374167,77.66257833,0.00000000,858.30000000,
2.616142,0.4560,-0.7192,-0.0002,-0.3164,-0.5113,0.4081,12.84374167,77.66257833,0.00000000,858.30000000,
2.617457,0.4560,-0.7192,-0.0002,-0.4496,-0.2920,0.3946,12.84374167,77.66257833,0.00000000,858.30000000,
2.631568,0.4560,-0.7192,-0.0002,-0.4496,-0.2920,0.3946,12.84374167,77.66257833,0.00000000,858.30000000,
2.632853,0.3922,-0.5247,0.2973,-0.4496,-0.2920,0.3946,12.84374167,77.66257833,0.00000000,858.30000000,
2.634325,0.3922,-0.5247,0.2973,-0.4013,-0.0116,0.3555,12.84374167,77.66257833,0.00000000,858.30000000,
2.659818,0.3922,-0.5247,0.2973,-0.4013,-0.0116,0.3555,12.84374167,77.66257833,0.00000000,858.30000000,
2.661378,0.1530,-0.2774,-0.1753,-0.4013,-0.0116,0.3555,12.84374167,77.66257833,0.00000000,858.30000000,
2.663095,0.1530,-0.2774,-0.1753,-0.2627,0.2004,0.3152,12.84374167,77.66257833,0.00000000,858.30000000,
2.685811,0.1530,-0.2774,-0.1753,-0.2627,0.2004,0.3152,12.84374167,77.66257833,0.00000000,858.30000000,
2.687474,-0.7261,0.3177,-1.2637,-0.2627,0.2004,0.3152,12.84374167,77.66257833,0.00000000,858.30000000,
2.688951,-0.7261,0.3177,-1.2637,-0.2615,0.2847,0.3592,12.84374167,77.66257833,0.00000000,858.30000000,
2.705911,-0.7261,0.3177,-1.2637,-0.2615,0.2847,0.3592,12.84374167,77.66257833,0.00000000,858.30000000,
2.707606,-0.5073,0.4955,-1.0971,-0.2615,0.2847,0.3592,12.84374167,77.66257833,0.00000000,858.30000000,
2.709206,-0.5073,0.4955,-1.0971,-0.2865,0.0269,0.4722,12.84374167,77.66257833,0.00000000,858.30000000,
2.726622,-0.5073,0.4955,-1.0971,-0.2865,0.0269,0.4722,12.84374167,77.66257833,0.00000000,858.30000000,
2.728423,0.0178,0.6464,-0.7036,-0.2865,0.0269,0.4722,12.84374167,77.66257833,0.00000000,858.30000000,
2.729962,0.0178,0.6464,-0.7036,-0.2162,-0.2150,0.5449,12.84374167,77.66257833,0.00000000,858.30000000,
2.746829,0.0178,0.6464,-0.7036,-0.2162,-0.2150,0.5449,12.84374167,77.66257833,0.00000000,858.30000000,
2.747936,0.3901,0.6862,-0.7151,-0.2162,-0.2150,0.5449,12.84374167,77.66257833,0.00000000,858.30000000,
2.748754,0.3901,0.6862,-0.7151,-0.1271,-0.3433,0.5589,12.84374167,77.66257833,0.00000000,858.30000000,
2.765948,0.3901,0.6862,-0.7151,-0.1271,-0.3433,0.5589,12.84374167,77.66257833,0.00000000,858.30000000,
2.767765,0.4805,0.7569,-0.8414,-0.1271,-0.3433,0.5589,12.84374167,77.66257833,0.00000000,858.30000000,
2.768987,0.4805,0.7569,-0.8414,-0.0641,-0.4087,0.5510,12.84374167,77.66257833,0.00000000,858.30000000,
2.786614,0.4805,0.7569,-0.8414,-0.0641,-0.4087,0.5510,12.84374167,77.66257833,0.00000000,858.30000000,
2.789330,0.5531,0.7467,-0.7616,-0.0641,-0.4087,0.5510,12.84374167,77.66257833,0.00000000,858.30000000,
2.791443,0.5531,0.7467,-0.7616,-0.0812,-0.5424,0.4917,12.84374167,77.66257833,0.00000000,858.30000000,
2.805887,0.5531,0.7467,-0.7616,-0.0812,-0.5424,0.4917,12.84374167,77.66257833,0.00000000,858.30000000,
2.807459,0.6161,0.8222,-0.0716,-0.0812,-0.5424,0.4917,12.84374167,77.66257833,0.00000000,858.30000000,
2.808964,0.6161,0.8222,-0.0716,-0.1454,-0.5565,0.3824,12.84374167,77.66257833,0.00000000,858.30000000,
2.826529,0.6161,0.8222,-0.0716,-0.1454,-0.5565,0.3824,12.84374167,77.66257833,0.00000000,858.30000000,
2.829125,0.6161,0.8222,-0.0716,-0.1619,-0.3293,0.2822,12.84374167,77.66257833,0.00000000,858.30000000,
2.830686,0.5390,0.5949,0.5448,-0.1619,-0.3293,0.2822,12.84374167,77.66257833,0.00000000,858.30000000,
2.846915,0.5390,0.5949,0.5448,-0.1619,-0.3293,0.2822,12.84374167,77.66257833,0.00000000,858.30000000,
2.848473,0.2986,0.4061,0.5742,-0.1619,-0.3293,0.2822,12.84374167,77.66257833,0.00000000,858.30000000,
2.849601,0.2986,0.4061,0.5742,-0.2266,0.0220,0.1881,12.84374167,77.66257833,0.00000000,858.30000000,
2.865695,0.2986,0.4061,0.5742,-0.2266,0.0220,0.1881,12.84374167,77.66257833,0.00000000,858.30000000,
2.867223,0.0277,0.2947,1.0327,-0.2266,0.0220,0.1881,12.84374167,77.66257833,0.00000000,858.30000000,
2.868527,0.0277,0.2947,1.0327,-0.3354,0.2712,0.1582,12.84374167,77.66257833,0.00000000,858.30000000,
2.886399,0.0277,0.2947,1.0327,-0.3354,0.2712,0.1582,12.84374167,77.66257833,0.00000000,858.30000000,
2.887991,0.1059,-0.1049,1.6211,-0.3354,0.2712,0.1582,12.84374167,77.66257833,0.00000000,858.30000000,
2.889487,0.1059,-0.1049,1.6211,-0.3812,0.3170,0.1252,12.84374167,77.66257833,0.00000000,858.30000000,
2.906463,0.1059,-0.1049,1.6211,-0.3812,0.3170,0.1252,12.84374167,77.66257833,0.00000000,858.30000000,
2.909132,-0.2526,-0.1188,2.0790,-0.3812,0.3170,0.1252,12.84374167,77.66257833,0.00000000,858.30000000,
2.910792,-0.2526,-0.1188,2.0790,-0.3910,0.3176,0.1087,12.84374167,77.66257833,0.00000000,858.30000000,
2.927158,-0.2526,-0.1188,2.0790,-0.3910,0.3176,0.1087,12.84374167,77.66257833,0.00000000,858.30000000,
2.928728,-0.7130,-0.1689,2.3580,-0.3910,0.3176,0.1087,12.84374167,77.66257833,0.00000000,858.30000000,
2.930315,-0.7130,-0.1689,2.3580,-0.3470,0.4588,0.1888,12.84374167,77.66257833,0.00000000,858.30000000,
2.946962,-0.7130,-0.1689,2.3580,-0.3470,0.4588,0.1888,12.84374167,77.66257833,0.00000000,858.30000000,
2.948525,-0.7130,-0.1689,2.3580,-0.3433,0.5956,0.3751,12.84374167,77.66257833,0.00000000,858.30000000,
2.949796,-0.9575,-0.4317,2.7868,-0.3433,0.5956,0.3751,12.84374167,77.66257833,0.00000000,858.30000000,
2.966049,-0.9575,-0.4317,2.7868,-0.3433,0.5956,0.3751,12.84374167,77.66257833,0.00000000,858.30000000,
2.967656,-0.6171,0.1765,3.3716,-0.3433,0.5956,0.3751,12.84374167,77.66257833,0.00000000,858.30000000,
2.968948,-0.6171,0.1765,3.3716,-0.3677,0.3653,0.6164,12.84374167,77.66257833,0.00000000,858.30000000,
2.986478,-0.6171,0.1765,3.3716,-0.3677,0.3653,0.6164,12.84374167,77.66257833,0.00000000,858.30000000,
2.988800,-0.1854,0.5084,3.5424,-0.3677,0.3653,0.6164,12.84374167,77.66257833,0.00000000,858.30000000,
2.990303,-0.1854,0.5084,3.5424,-0.2144,0.0403,0.6713,12.84374167,77.66257833,0.00000000,858.30000000,
3.006908,-0.1854,0.5084,3.5424,-0.2144,0.0403,0.6713,12.84374167,77.66257833,0.00000000,858.30000000,
3.008587,-0.0066,0.2355,3.3416,-0.2144,0.0403,0.6713,12.84374167,77.66257833,0.00000000,858.30000000,
3.010271,-0.0066,0.2355,3.3416,0.1417,-0.3268,0.6823,12.84374167,77.66257833,0.00000000,858.30000000,
3.027257,-0.0066,0.2355,3.3416,0.1417,-0.3268,0.6823,12.84374167,77.66257833,0.00000000,858.30000000,
3.028862,-0.0066,0.2355,3.3416,0.4728,-0.3922,0.7630,12.84374167,77.66257833,0.00000000,858.30000000,
3.030295,-0.0762,-0.1846,2.5097,0.4728,-0.3922,0.7630,12.84374167,77.66257833,0.00000000,858.30000000,
3.046677,-0.0762,-0.1846,2.5097,0.4728,-0.3922,0.7630,12.84374167,77.66257833,0.00000000,858.30000000,
3.048311,-0.0762,-0.1846,2.5097,0.6567,-0.0031,0.7892,12.84374167,77.66257833,0.00000000,858.30000000,
3.049920,0.3528,-0.5745,1.0937,0.6567,-0.0031,0.7892,12.84374167,77.66257833,0.00000000,858.30000000,
3.065865,0.3528,-0.5745,1.0937,0.6567,-0.0031,0.7892,12.84374167,77.66257833,0.00000000,858.30000000,
3.067610,0.3528,-0.5745,1.0937,0.6658,0.4924,0.7795,12.84374167,77.66257833,0.00000000,858.30000000,
3.068973,0.8897,-0.6758,0.0124,0.6658,0.4924,0.7795,12.84374167,77.66257833,0.00000000,858.30000000,
3.086392,0.8897,-0.6758,0.0124,0.6658,0.4924,0.7795,12.84374167,77.66257833,0.00000000,858.30000000,
3.088068,0.8897,-0.6758,0.0124,0.5651,0.6689,0.7013,12.84374167,77.66257833,0.00000000,858.30000000,
3.089494,1.5676,-0.6535,-0.5578,0.5651,0.6689,0.7013,12.84374167,77.66257833,0.00000000,858.30000000,
3.105788,1.5676,-0.6535,-0.5578,0.5651,0.6689,0.7013,12.84374167,77.66257833,0.00000000,858.30000000,
3.107283,1.9369,-0.3555,-0.4883,0.5651,0.6689,0.7013,12.84374167,77.66257833,0.00000000,858.30000000,
3.109058,1.9369,-0.3555,-0.4883,0.4331,0.4588,0.5858,12.84374167,77.66257833,0.00000000,858.30000000,
3.127071,1.9369,-0.3555,-0.4883,0.4331,0.4588,0.5858,12.84374167,77.66257833,0.00000000,858.30000000,
3.129914,1.9369,-0.3555,-0.4883,0.4288,0.1564,0.4136,12.84374167,77.66257833,0.00000000,858.30000000,
3.131117,2.2064,-0.2496,-0.3999,0.4288,0.1564,0.4136,12.84374167,77.66257833,0.00000000,858.30000000,
3.146651,2.2064,-0.2496,-0.3999,0.4288,0.1564,0.4136,12.84374167,77.66257833,0.00000000,858.30000000,
3.148336,1.8496,-0.1993,-0.7343,0.4288,0.1564,0.4136,12.84374167,77.66257833,0.00000000,858.30000000,
3.149574,1.8496,-0.1993,-0.7343,0.4380,-0.1136,0.1613,12.84374167,77.66257833,0.00000000,858.30000000,
3.166876,1.8496,-0.1993,-0.7343,0.4380,-0.1136,0.1613,12.84374167,77.66257833,0.00000000,858.30000000,
3.168663,1.1312,-0.2930,-1.1981,0.4380,-0.1136,0.1613,12.84374167,77.66257833,0.00000000,858.30000000,
3.169953,1.1312,-0.2930,-1.1981,0.3610,-0.2132,-0.0043,12.84374167,77.66257833,0.00000000,858.30000000,
3.185994,1.1312,-0.2930,-1.1981,0.3610,-0.2132,-0.0043,12.84374167,77.66257833,0.00000000,858.30000000,
3.187558,0.7110,-0.4972,-1.2769,0.3610,-0.2132,-0.0043,12.84374167,77.66257833,0.00000000,858.30000000,
3.189191,0.7110,-0.4972,-1.2769,0.2187,-0.0208,-0.0153,12.84374167,77.66257833,0.00000000,858.30000000,
3.206415,0.7110,-0.4972,-1.2769,0.2187,-0.0208,-0.0153,12.84374167,77.66257833,0.00000000,858.30000000,
3.208098,0.7110,-0.4972,-1.2769,0.2065,0.2566,0.0116,12.84374167,77.66257833,0.00000000,858.30000000,
3.209817,0.7669,-0.6153,-0.9125,0.2065,0.2566,0.0116,12.84374167,77.66257833,0.00000000,858.30000000,
3.226634,0.7669,-0.6153,-0.9125,0.2065,0.2566,0.0116,12.84374167,77.66257833,0.00000000,863.90000000,
3.228414,0.8349,-0.5510,-1.2829,0.2065,0.2566,0.0116,12.84367000,77.66279500,0.77620113,863.90000000,
3.230096,0.8349,-0.5510,-1.2829,0.3238,0.4557,0.0140,12.84367000,77.66279500,0.77620113,863.90000000,
3.245736,0.8349,-0.5510,-1.2829,0.3238,0.4557,0.0140,12.84367000,77.66279500,0.77620113,863.90000000,
3.247365,0.9202,-0.0448,-2.0466,0.3238,0.4557,0.0140,12.84367000,77.66279500,0.77620113,863.90000000,
3.250072,0.9202,-0.0448,-2.0466,0.3494,0.4673,-0.0195,12.84367000,77.66279500,0.77620113,863.90000000,
3.266183,0.9202,-0.0448,-2.0466,0.3494,0.4673,-0.0195,12.84367000,77.66279500,0.77620113,863.90000000,
3.268132,0.6620,0.3638,-2.2976,0.3494,0.4673,-0.0195,12.84367000,77.66279500,0.77620113,863.90000000,
3.269463,0.6620,0.3638,-2.2976,0.2254,0.3940,-0.0415,12.84367000,77.66279500,0.77620113,863.90000000,
3.287823,0.6620,0.3638,-2.2976,0.2254,0.3940,-0.0415,12.84367000,77.66279500,0.77620113,863.90000000,
3.289623,0.6620,0.3638,-2.2976,0.1069,0.2450,0.0000,12.84367000,77.66279500,0.77620113,863.90000000,
3.291167,0.2619,0.4177,-1.6286,0.1069,0.2450,0.0000,12.84367000,77.66279500,0.77620113,863.90000000,
3.309926,0.2619,0.4177,-1.6286,0.1069,0.2450,0.0000,12.84367000,77.66279500,0.77620113,863.90000000,
3.311542,0.0158,-0.0333,-0.5872,0.1069,0.2450,0.0000,12.84367000,77.66279500,0.77620113,863.90000000,
3.312881,0.0158,-0.0333,-0.5872,0.1674,0.0678,0.0929,12.84367000,77.66279500,0.77620113,863.90000000,
3.327323,0.0158,-0.0333,-0.5872,0.1674,0.0678,0.0929,12.84367000,77.66279500,0.77620113,863.90000000,
3.329172,0.0158,-0.0333,-0.5872,0.3806,-0.0287,0.2773,12.84367000,77.66279500,0.77620113,863.90000000,
3.330630,-0.3050,-0.2362,-0.0740,0.3806,-0.0287,0.2773,12.84367000,77.66279500,0.77620113,863.90000000,
3.345444,-0.3050,-0.2362,-0.0740,0.3806,-0.0287,0.2773,12.84367000,77.66279500,0.77620113,863.90000000,
3.347181,-0.1088,-0.0053,-0.2803,0.3806,-0.0287,0.2773,12.84367000,77.66279500,0.77620113,863.90000000,
3.348530,-0.1088,-0.0053,-0.2803,0.5486,-0.1246,0.4404,12.84367000,77.66279500,0.77620113,863.90000000,
3.366732,-0.1088,-0.0053,-0.2803,0.5486,-0.1246,0.4404,12.84367000,77.66279500,0.77620113,863.90000000,
3.368501,-0.1088,-0.0053,-0.2803,0.5046,0.0055,0.4661,12.84367000,77.66279500,0.77620113,863.90000000,
3.370020,0.1101,0.3167,-1.1071,0.5046,0.0055,0.4661,12.84367000,77.66279500,0.77620113,863.90000000,
3.390943,0.1101,0.3167,-1.1071,0.5046,0.0055,0.4661,12.84367000,77.66279500,0.77620113,863.90000000,
3.394043,0.1019,0.2521,-1.5719,0.5046,0.0055,0.4661,12.84367000,77.66279500,0.77620113,863.90000000,
3.396206,0.1019,0.2521,-1.5719,0.3445,0.2126,0.4704,12.84367000,77.66279500,0.77620113,863.90000000,
3.407142,0.1019,0.2521,-1.5719,0.3445,0.2126,0.4704,12.84367000,77.66279500,0.77620113,863.90000000,
3.408688,-0.1418,0.0046,-1.1525,0.3445,0.2126,0.4704,12.84367000,77.66279500,0.77620113,863.90000000,
3.410065,-0.1418,0.0046,-1.1525,0.1545,0.3073,0.4832,12.84367000,77.66279500,0.77620113,863.90000000,
3.426757,-0.1418,0.0046,-1.1525,0.1545,0.3073,0.4832,12.84367000,77.66279500,0.77620113,863.90000000,
3.428619,-0.3166,0.0120,-0.1159,0.1545,0.3073,0.4832,12.84367000,77.66279500,0.77620113,863.90000000,
3.429924,-0.3166,0.0120,-0.1159,0.1411,0.2266,0.5486,12.84367000,77.66279500,0.77620113,863.90000000,
3.445977,-0.3166,0.0120,-0.1159,0.1411,0.2266,0.5486,12.84367000,77.66279500,0.77620113,863.90000000,
3.447865,-0.3166,0.0120,-0.1159,0.2822,0.0910,0.5608,12.84367000,77.66279500,0.77620113,863.90000000,
3.448867,-0.3857,-0.0438,0.1049,0.2822,0.0910,0.5608,12.84367000,77.66279500,0.77620113,863.90000000,
3.466147,-0.3857,-0.0438,0.1049,0.2822,0.0910,0.5608,12.84367000,77.66279500,0.77620113,863.90000000,
3.468073,-0.4746,0.1497,0.1512,0.2822,0.0910,0.5608,12.84367000,77.66279500,0.77620113,863.90000000,
3.469492,-0.4746,0.1497,0.1512,0.3470,-0.0874,0.5693,12.84367000,77.66279500,0.77620113,863.90000000,
3.486466,-0.4746,0.1497,0.1512,0.3470,-0.0874,0.5693,12.84367000,77.66279500,0.77620113,863.90000000,
3.488278,-0.4746,0.1497,0.1512,0.3134,-0.2669,0.5528,12.84367000,77.66279500,0.77620113,863.90000000,
3.489508,-0.2062,0.1432,0.2928,0.3134,-0.2669,0.5528,12.84367000,77.66279500,0.77620113,863.90000000,
3.506359,-0.2062,0.1432,0.2928,0.3134,-0.2669,0.5528,12.84367000,77.66279500,0.77620113,863.90000000,
3.508562,-0.4991,-0.2003,0.8223,0.3134,-0.2669,0.5528,12.84367000,77.66279500,0.77620113,863.90000000,
3.510201,-0.4991,-0.2003,0.8223,0.2926,-0.3989,0.5235,12.84367000,77.66279500,0.77620113,863.90000000,
3.527273,-0.4991,-0.2003,0.8223,0.2926,-0.3989,0.5235,12.84367000,77.66279500,0.77620113,863.90000000,
3.529074,-0.5310,-0.1046,0.4278,0.2926,-0.3989,0.5235,12.84367000,77.66279500,0.77620113,863.90000000,
3.530667,-0.5310,-0.1046,0.4278,0.3018,-0.1515,0.6139,12.84367000,77.66279500,0.77620113,863.90000000,
3.545865,-0.5310,-0.1046,0.4278,0.3018,-0.1515,0.6139,12.84367000,77.66279500,0.77620113,863.90000000,
3.548112,-0.5310,-0.1046,0.4278,0.1772,0.3659,0.4740,12.84367000,77.66279500,0.77620113,863.90000000,
3.549536,-1.1262,-0.6400,-0.4784,0.1772,0.3659,0.4740,12.84367000,77.66279500,0.77620113,863.90000000,
3.567126,-1.1262,-0.6400,-0.4784,0.1772,0.3659,0.4740,12.84367000,77.66279500,0.77620113,863.90000000,
3.569487,-1.4336,0.3053,-0.6280,0.1772,0.3659,0.4740,12.84367000,77.66279500,0.77620113,863.90000000,
3.571054,-1.4336,0.3053,-0.6280,-0.5400,-0.1765,0.6573,12.84367000,77.66279500,0.77620113,863.90000000,
3.586129,-1.4336,0.3053,-0.6280,-0.5400,-0.1765,0.6573,12.84367000,77.66279500,0.77620113,863.90000000,
3.587935,-0.6602,0.2342,0.8842,-0.5400,-0.1765,0.6573,12.84367000,77.66279500,0.77620113,863.90000000,
3.589212,-0.6602,0.2342,0.8842,-1.0904,-0.3103,0.5284,12.84367000,77.66279500,0.77620113,863.90000000,
3.607195,-0.6602,0.2342,0.8842,-1.0904,-0.3103,0.5284,12.84367000,77.66279500,0.77620113,863.90000000,
3.609410,0.2640,-0.2720,2.8074,-1.0904,-0.3103,0.5284,12.84367000,77.66279500,0.77620113,863.90000000,
3.610938,0.2640,-0.2720,2.8074,-1.1655,-0.5754,0.5168,12.84367000,77.66279500,0.77620113,863.90000000,
3.626968,0.2640,-0.2720,2.8074,-1.1655,-0.5754,0.5168,12.84367000,77.66279500,0.77620113,863.90000000,
3.629346,0.2640,-0.2720,2.8074,-0.7782,-0.4759,0.4172,12.84367000,77.66279500,0.77620113,863.90000000,
3.630617,0.6513,-0.4343,3.0637,-0.7782,-0.4759,0.4172,12.84367000,77.66279500,0.77620113,863.90000000,
3.647205,0.6513,-0.4343,3.0637,-0.7782,-0.4759,0.4172,12.84367000,77.66279500,0.77620113,863.90000000,
3.649118,0.0564,0.0428,1.9148,-0.7782,-0.4759,0.4172,12.84367000,77.66279500,0.77620113,863.90000000,
3.650189,0.0564,0.0428,1.9148,-0.3060,-0.1521,0.3140,12.84367000,77.66279500,0.77620113,863.90000000,
3.666296,0.0564,0.0428,1.9148,-0.3060,-0.1521,0.3140,12.84367000,77.66279500,0.77620113,863.90000000,
3.667818,0.0025,0.0809,0.6808,-0.3060,-0.1521,0.3140,12.84367000,77.66279500,0.77620113,863.90000000,
3.669027,0.0025,0.0809,0.6808,-0.0990,0.1362,0.2541,12.84367000,77.66279500,0.77620113,863.90000000,
3.686553,0.0025,0.0809,0.6808,-0.0990,0.1362,0.2541,12.84367000,77.66279500,0.77620113,863.90000000,
3.688372,-0.2220,-0.0466,-1.3335,-0.0990,0.1362,0.2541,12.84367000,77.66279500,0.77620113,863.90000000,
3.690024,-0.2220,-0.0466,-1.3335,-0.3897,0.5974,0.2425,12.84367000,77.66279500,0.77620113,863.90000000,
3.706824,-0.2220,-0.0466,-1.3335,-0.3897,0.5974,0.2425,12.84367000,77.66279500,0.77620113,863.90000000,
3.709700,0.0233,-0.2804,-0.8229,-0.3897,0.5974,0.2425,12.84367000,77.66279500,0.77620113,863.90000000,
3.711428,0.0233,-0.2804,-0.8229,-0.5944,1.6072,0.2932,12.84367000,77.66279500,0.77620113,863.90000000,
3.726065,0.0233,-0.2804,-0.8229,-0.5944,1.6072,0.2932,12.84367000,77.66279500,0.77620113,863.90000000,
3.727799,0.0233,-0.2804,-0.8229,-0.6677,1.5321,0.2523,12.84367000,77.66279500,0.77620113,863.90000000,
3.729122,0.0358,0.1681,-0.2881,-0.6677,1.5321,0.2523,12.84367000,77.66279500,0.77620113,863.90000000,
3.746280,0.0358,0.1681,-0.2881,-0.6677,1.5321,0.2523,12.84367000,77.66279500,0.77620113,863.90000000,
3.748040,-0.0571,0.4585,0.2818,-0.6677,1.5321,0.2523,12.84367000,77.66279500,0.77620113,863.90000000,
3.749334,-0.0571,0.4585,0.2818,-0.4581,1.0531,0.1790,12.84367000,77.66279500,0.77620113,863.90000000,
3.767013,-0.0571,0.4585,0.2818,-0.4581,1.0531,0.1790,12.84367000,77.66279500,0.77620113,863.90000000,
3.768779,-0.0855,0.2831,0.2595,-0.4581,1.0531,0.1790,12.84367000,77.66279500,0.77620113,863.90000000,
3.770030,-0.0855,0.2831,0.2595,-0.1539,0.2376,0.1729,12.84367000,77.66279500,0.77620113,863.90000000,
3.788377,-0.0855,0.2831,0.2595,-0.1539,0.2376,0.1729,12.84367000,77.66279500,0.77620113,863.90000000,
3.790769,-0.0438,0.0552,-0.0998,-0.1539,0.2376,0.1729,12.84367000,77.66279500,0.77620113,863.90000000,
3.793228,-0.0438,0.0552,-0.0998,0.1692,-0.3738,0.2382,12.84367000,77.66279500,0.77620113,863.90000000,
3.806974,-0.0438,0.0552,-0.0998,0.1692,-0.3738,0.2382,12.84367000,77.66279500,0.77620113,863.90000000,
3.808741,-0.0438,0.0552,-0.0998,0.3653,-0.6371,0.3030,12.84367000,77.66279500,0.77620113,863.90000000,
3.810085,-0.1245,-0.1529,-0.8037,0.3653,-0.6371,0.3030,12.84367000,77.66279500,0.77620113,863.90000000,
3.825794,-0.1245,-0.1529,-0.8037,0.3653,-0.6371,0.3030,12.84367000,77.66279500,0.77620113,863.90000000,
3.827889,-0.1245,-0.1529,-0.8037,0.3409,-0.5229,0.3555,12.84367000,77.66279500,0.77620113,863.90000000,
3.829433,-0.4478,-0.1845,-1.3906,0.3409,-0.5229,0.3555,12.84367000,77.66279500,0.77620113,863.90000000,
3.847048,-0.4478,-0.1845,-1.3906,0.3409,-0.5229,0.3555,12.84367000,77.66279500,0.77620113,863.90000000,
3.848960,-0.4478,-0.1845,-1.3906,0.1271,-0.1967,0.3965,12.84367000,77.66279500,0.77620113,863.90000000,
3.850290,-0.6561,-0.0768,-1.6186,0.1271,-0.1967,0.3965,12.84367000,77.66279500,0.77620113,863.90000000,
3.866721,-0.6561,-0.0768,-1.6186,0.1271,-0.1967,0.3965,12.84367000,77.66279500,0.77620113,863.90000000,
3.868789,-0.6982,-0.1269,-1.2380,0.1271,-0.1967,0.3965,12.84367000,77.66279500,0.77620113,863.90000000,
3.870674,-0.6982,-0.1269,-1.2380,-0.0458,0.1167,0.4123,12.84367000,77.66279500,0.77620113,863.90000000,
3.887571,-0.6982,-0.1269,-1.2380,-0.0458,0.1167,0.4123,12.84367000,77.66279500,0.77620113,863.90000000,
3.889572,-0.3049,-0.0967,-0.3435,-0.0458,0.1167,0.4123,12.84367000,77.66279500,0.77620113,863.90000000,
3.890943,-0.3049,-0.0967,-0.3435,-0.1185,0.1741,0.3635,12.84367000,77.66279500,0.77620113,863.90000000,
3.906471,-0.3049,-0.0967,-0.3435,-0.1185,0.1741,0.3635,12.84367000,77.66279500,0.77620113,863.90000000,
3.908798,-0.3049,-0.0967,-0.3435,-0.0330,0.1216,0.2975,12.84367000,77.66279500,0.77620113,863.90000000,
3.910265,-0.1004,-0.0811,0.2726,-0.0330,0.1216,0.2975,12.84367000,77.66279500,0.77620113,863.90000000,
3.926316,-0.1004,-0.0811,0.2726,-0.0330,0.1216,0.2975,12.84367000,77.66279500,0.77620113,863.90000000,
3.928164,0.1318,-0.0565,0.2842,-0.0330,0.1216,0.2975,12.84367000,77.66279500,0.77620113,863.90000000,
3.929681,0.1318,-0.0565,0.2842,0.1100,-0.0086,0.2010,12.84367000,77.66279500,0.77620113,863.90000000,
3.946112,0.1318,-0.0565,0.2842,0.1100,-0.0086,0.2010,12.84367000,77.66279500,0.77620113,863.90000000,
3.947744,0.1171,-0.0402,0.0098,0.1100,-0.0086,0.2010,12.84367000,77.66279500,0.77620113,863.90000000,
3.949160,0.1171,-0.0402,0.0098,0.2077,-0.1478,0.1002,12.84367000,77.66279500,0.77620113,863.90000000,
3.966487,0.1171,-0.0402,0.0098,0.2077,-0.1478,0.1002,12.84367000,77.66279500,0.77620113,863.90000000,
3.968260,-0.3208,-0.1179,-0.1603,0.2077,-0.1478,0.1002,12.84367000,77.66279500,0.77620113,863.90000000,
3.969752,-0.3208,-0.1179,-0.1603,0.2663,-0.2810,0.0666,12.84367000,77.66279500,0.77620113,863.90000000,
3.986974,-0.3208,-0.1179,-0.1603,0.2663,-0.2810,0.0666,12.84367000,77.66279500,0.77620113,863.90000000,
3.988816,-0.4344,-0.2265,-0.2494,0.2663,-0.2810,0.0666,12.84367000,77.66279500,0.77620113,863.90000000,
3.990421,-0.4344,-0.2265,-0.2494,0.2596,-0.3335,0.0831,12.84367000,77.66279500,0.77620113,863.90000000,
4.006139,-0.4344,-0.2265,-0.2494,0.2596,-0.3335,0.0831,12.84367000,77.66279500,0.77620113,863.90000000,
4.008368,-0.3881,-0.2257,-0.3197,0.2596,-0.3335,0.0831,12.84367000,77.66279500,0.77620113,863.90000000,
4.009852,-0.3881,-0.2257,-0.3197,0.2364,-0.2926,0.0929,12.84367000,77.66279500,0.77620113,863.90000000,
4.026007,-0.3881,-0.2257,-0.3197,0.2364,-0.2926,0.0929,12.84367000,77.66279500,0.77620113,863.90000000,
4.028083,-0.4416,-0.2345,-0.2900,0.2364,-0.2926,0.0929,12.84367000,77.66279500,0.77620113,863.90000000,
4.029495,-0.4416,-0.2345,-0.2900,0.1949,-0.2926,0.0819,12.84367000,77.66279500,0.77620113,863.90000000,
4.045847,-0.4416,-0.2345,-0.2900,0.1949,-0.2926,0.0819,12.84367000,77.66279500,0.77620113,863.90000000,
4.047871,-0.5584,-0.2314,0.0549,0.1949,-0.2926,0.0819,12.84367000,77.66279500,0.77620113,863.90000000,
4.049485,-0.5584,-0.2314,0.0549,0.2040,-0.3067,0.0983,12.84367000,77.66279500,0.77620113,863.90000000,
4.065995,-0.5584,-0.2314,0.0549,0.2040,-0.3067,0.0983,12.84367000,77.66279500,0.77620113,863.90000000,
4.067819,-0.4517,-0.5697,0.0575,0.2040,-0.3067,0.0983,12.84367000,77.66279500,0.77620113,863.90000000,
4.069245,-0.4517,-0.5697,0.0575,0.2034,-0.1662,0.1704,12.84367000,77.66279500,0.77620113,863.90000000,
4.086385,-0.4517,-0.5697,0.0575,0.2034,-0.1662,0.1704,12.84367000,77.66279500,0.77620113,863.90000000,
4.088405,-0.0757,-0.5801,0.0750,0.2034,-0.1662,0.1704,12.84367000,77.66279500,0.77620113,863.90000000,
4.089635,-0.0757,-0.5801,0.0750,0.0983,0.0593,0.2401,12.84367000,77.66279500,0.77620113,863.90000000,
4.106544,-0.0757,-0.5801,0.0750,0.0983,0.0593,0.2401,12.84367000,77.66279500,0.77620113,863.90000000,
4.108695,-0.0757,-0.5801,0.0750,-0.0837,0.2236,0.2309,12.84367000,77.66279500,0.77620113,863.90000000,
4.109998,0.2133,-0.3904,0.5000,-0.0837,0.2236,0.2309,12.84367000,77.66279500,0.77620113,863.90000000,
4.126308,0.2133,-0.3904,0.5000,-0.0837,0.2236,0.2309,12.84367000,77.66279500,0.77620113,863.90000000,
4.129231,0.2047,-0.2120,1.0765,-0.0837,0.2236,0.2309,12.84367000,77.66279500,0.77620113,863.90000000,
4.130713,0.2047,-0.2120,1.0765,-0.1912,0.3079,0.1918,12.84367000,77.66279500,0.77620113,863.90000000,
4.146324,0.2047,-0.2120,1.0765,-0.1912,0.3079,0.1918,12.84367000,77.66279500,0.77620113,863.90000000,
4.148153,0.4922,-0.2263,1.3420,-0.1912,0.3079,0.1918,12.84367000,77.66279500,0.77620113,863.90000000,
4.149334,0.4922,-0.2263,1.3420,-0.3372,0.2089,0.0929,12.84367000,77.66279500,0.77620113,863.90000000,
4.166371,0.4922,-0.2263,1.3420,-0.3372,0.2089,0.0929,12.84367000,77.66279500,0.77620113,863.90000000,
4.168282,0.7359,-0.1287,1.6453,-0.3372,0.2089,0.0929,12.84367000,77.66279500,0.77620113,863.90000000,
4.169700,0.7359,-0.1287,1.6453,-0.6567,0.0464,-0.0232,12.84367000,77.66279500,0.77620113,863.90000000,
4.187109,0.7359,-0.1287,1.6453,-0.6567,0.0464,-0.0232,12.84367000,77.66279500,0.77620113,863.90000000,
4.189207,0.9949,-0.3807,2.4556,-0.6567,0.0464,-0.0232,12.84367000,77.66279500,0.77620113,863.90000000,
4.190468,0.9949,-0.3807,2.4556,-0.8900,0.0134,-0.0947,12.84367000,77.66279500,0.77620113,863.90000000,
4.205746,0.9949,-0.3807,2.4556,-0.8900,0.0134,-0.0947,12.84367000,77.66279500,0.77620113,863.90000000,
4.208455,1.3159,-0.8556,3.4258,-0.8900,0.0134,-0.0947,12.84367000,77.66279500,0.77620113,863.90000000,
4.210593,1.3159,-0.8556,3.4258,-0.7947,-0.2437,-0.1613,12.84367000,77.66279500,0.77620113,863.90000000,
4.226442,1.3159,-0.8556,3.4258,-0.7947,-0.2437,-0.1613,12.84367000,77.66279500,0.77620113,864.60000000,
4.228338,0.9515,-1.0190,3.4699,-0.7947,-0.2437,-0.1613,12.84366167,77.66282167,0.81017280,864.60000000,
4.229666,0.9515,-1.0190,3.4699,-0.2926,-0.6029,-0.1326,12.84366167,77.66282167,0.81017280,864.60000000,
4.246163,0.9515,-1.0190,3.4699,-0.2926,-0.6029,-0.1326,12.84366167,77.66282167,0.81017280,864.60000000,
4.247965,0.0502,-0.9145,2.3465,-0.2926,-0.6029,-0.1326,12.84366167,77.66282167,0.81017280,864.60000000,
4.249140,0.0502,-0.9145,2.3465,0.4191,-0.8570,0.0226,12.84366167,77.66282167,0.81017280,864.60000000,
4.266857,0.0502,-0.9145,2.3465,0.4191,-0.8570,0.0226,12.84366167,77.66282167,0.81017280,864.60000000,
4.268722,-0.4710,-0.7934,0.6528,0.4191,-0.8570,0.0226,12.84366167,77.66282167,0.81017280,864.60000000,
4.270395,-0.4710,-0.7934,0.6528,1.0079,-0.9896,0.2498,12.84366167,77.66282167,0.81017280,864.60000000,
4.287043,-0.4710,-0.7934,0.6528,1.0079,-0.9896,0.2498,12.84366167,77.66282167,0.81017280,864.60000000,
4.288933,0.0495,-0.8214,-1.3898,1.0079,-0.9896,0.2498,12.84366167,77.66282167,0.81017280,864.60000000,
4.290567,0.0495,-0.8214,-1.3898,1.1832,-0.8882,0.3781,12.84366167,77.66282167,0.81017280,864.60000000,
4.305998,0.0495,-0.8214,-1.3898,1.1832,-0.8882,0.3781,12.84366167,77.66282167,0.81017280,864.60000000,
4.307856,0.4304,-0.2870,-2.4420,1.1832,-0.8882,0.3781,12.84366167,77.66282167,0.81017280,864.60000000,
4.309534,0.4304,-0.2870,-2.4420,0.9163,-0.5840,0.3653,12.84366167,77.66282167,0.81017280,864.60000000,
4.326438,0.4304,-0.2870,-2.4420,0.9163,-0.5840,0.3653,12.84366167,77.66282167,0.81017280,864.60000000,
4.328400,0.8380,-0.0083,-2.3086,0.9163,-0.5840,0.3653,12.84366167,77.66282167,0.81017280,864.60000000,
4.329782,0.8380,-0.0083,-2.3086,0.5168,-0.2285,0.2450,12.84366167,77.66282167,0.81017280,864.60000000,
4.347106,0.8380,-0.0083,-2.3086,0.5168,-0.2285,0.2450,12.84366167,77.66282167,0.81017280,864.60000000,
4.349134,0.7257,-0.0905,-1.6923,0.5168,-0.2285,0.2450,12.84366167,77.66282167,0.81017280,864.60000000,
4.350532,0.7257,-0.0905,-1.6923,0.1765,0.2193,0.0849,12.84366167,77.66282167,0.81017280,864.60000000,
4.366769,0.7257,-0.0905,-1.6923,0.1765,0.2193,0.0849,12.84366167,77.66282167,0.81017280,864.60000000,
4.368642,0.7257,-0.0905,-1.6923,-0.0140,0.6109,0.0305,12.84366167,77.66282167,0.81017280,864.60000000,
4.369975,0.2085,-0.0772,-1.1497,-0.0140,0.6109,0.0305,12.84366167,77.66282167,0.81017280,864.60000000,
4.386969,0.2085,-0.0772,-1.1497,-0.0140,0.6109,0.0305,12.84366167,77.66282167,0.81017280,864.60000000,
4.389295,0.2085,-0.0772,-1.1497,-0.1741,0.6469,0.0281,12.84366167,77.66282167,0.81017280,864.60000000,
4.390563,0.4811,-0.2970,-1.0450,-0.1741,0.6469,0.0281,12.84366167,77.66282167,0.81017280,864.60000000,
4.405575,0.4811,-0.2970,-1.0450,-0.1741,0.6469,0.0281,12.84366167,77.66282167,0.81017280,864.60000000,
4.407512,0.4811,-0.2970,-1.0450,-0.3457,0.5864,-0.0373,12.84366167,77.66282167,0.81017280,864.60000000,
4.409080,0.9042,-0.1973,-1.1808,-0.3457,0.5864,-0.0373,12.84366167,77.66282167,0.81017280,864.60000000,
4.425852,0.9042,-0.1973,-1.1808,-0.3457,0.5864,-0.0373,12.84366167,77.66282167,0.81017280,864.60000000,
4.427698,0.9042,-0.1973,-1.1808,-0.5095,0.5168,-0.1222,12.84366167,77.66282167,0.81017280,864.60000000,
4.428907,0.7118,0.1617,-0.9130,-0.5095,0.5168,-0.1222,12.84366167,77.66282167,0.81017280,864.60000000,
4.445735,0.7118,0.1617,-0.9130,-0.5095,0.5168,-0.1222,12.84366167,77.66282167,0.81017280,864.60000000,
4.447419,0.7118,0.1617,-0.9130,-0.4789,0.4264,-0.1246,12.84366167,77.66282167,0.81017280,864.60000000,
4.448553,0.3864,0.1557,-0.3006,-0.4789,0.4264,-0.1246,12.84366167,77.66282167,0.81017280,864.60000000,
4.466704,0.3864,0.1557,-0.3006,-0.4789,0.4264,-0.1246,12.84366167,77.66282167,0.81017280,864.60000000,
4.468493,0.2783,0.0426,0.0379,-0.4789,0.4264,-0.1246,12.84366167,77.66282167,0.81017280,864.60000000,
4.470277,0.2783,0.0426,0.0379,-0.2230,0.3433,-0.0525,12.84366167,77.66282167,0.81017280,864.60000000,
4.486117,0.2783,0.0426,0.0379,-0.2230,0.3433,-0.0525,12.84366167,77.66282167,0.81017280,864.60000000,
4.487738,0.1059,0.1085,-0.5065,-0.2230,0.3433,-0.0525,12.84366167,77.66282167,0.81017280,864.60000000,
4.488964,0.1059,0.1085,-0.5065,0.0177,0.3067,0.0580,12.84366167,77.66282167,0.81017280,864.60000000,
4.506079,0.1059,0.1085,-0.5065,0.0177,0.3067,0.0580,12.84366167,77.66282167,0.81017280,864.60000000,
4.507999,0.1059,0.1085,-0.5065,0.0916,0.2834,0.1814,12.84366167,77.66282167,0.81017280,864.60000000,
4.509478,0.1884,0.3919,-1.1214,0.0916,0.2834,0.1814,12.84366167,77.66282167,0.81017280,864.60000000,
4.525734,0.1884,0.3919,-1.1214,0.0916,0.2834,0.1814,12.84366167,77.66282167,0.81017280,864.60000000,
4.527417,0.6621,0.5243,-1.1216,0.0916,0.2834,0.1814,12.84366167,77.66282167,0.81017280,864.60000000,
4.528617,0.6621,0.5243,-1.1216,0.1008,0.1350,0.2291,12.84366167,77.66282167,0.81017280,864.60000000,
4.546389,0.6621,0.5243,-1.1216,0.1008,0.1350,0.2291,12.84366167,77.66282167,0.81017280,864.60000000,
4.548386,0.6621,0.5243,-1.1216,0.1655,0.0171,0.1466,12.84366167,77.66282167,0.81017280,864.60000000,
4.549532,1.0488,0.7302,-0.8750,0.1655,0.0171,0.1466,12.84366167,77.66282167,0.81017280,864.60000000,
4.566235,1.0488,0.7302,-0.8750,0.1655,0.0171,0.1466,12.84366167,77.66282167,0.81017280,864.60000000,
4.568504,0.9461,0.7062,-1.1018,0.1655,0.0171,0.1466,12.84366167,77.66282167,0.81017280,864.60000000,
4.569848,0.9461,0.7062,-1.1018,0.1943,0.0244,0.0599,12.84366167,77.66282167,0.81017280,864.60000000,
4.586238,0.9461,0.7062,-1.1018,0.1943,0.0244,0.0599,12.84366167,77.66282167,0.81017280,864.60000000,
4.588263,0.7529,0.5590,-1.3391,0.1943,0.0244,0.0599,12.84366167,77.66282167,0.81017280,864.60000000,
4.589534,0.7529,0.5590,-1.3391,0.0739,0.1216,0.0336,12.84366167,77.66282167,0.81017280,864.60000000,
4.605926,0.7529,0.5590,-1.3391,0.0739,0.1216,0.0336,12.84366167,77.66282167,0.81017280,864.60000000,
4.607817,0.7508,0.5637,-0.8915,0.0739,0.1216,0.0336,12.84366167,77.66282167,0.81017280,864.60000000,
4.609110,0.7508,0.5637,-0.8915,-0.0611,0.2156,0.0195,12.84366167,77.66282167,0.81017280,864.60000000,
4.626317,0.7508,0.5637,-0.8915,-0.0611,0.2156,0.0195,12.84366167,77.66282167,0.81017280,864.60000000,
4.628243,0.7508,0.5637,-0.8915,-0.0476,0.2657,-0.0067,12.84366167,77.66282167,0.81017280,864.60000000,
4.629160,0.5558,0.6471,0.0162,-0.0476,0.2657,-0.0067,12.84366167,77.66282167,0.81017280,864.60000000,
4.646409,0.5558,0.6471,0.0162,-0.0476,0.2657,-0.0067,12.84366167,77.66282167,0.81017280,864.60000000,
4.648061,0.4602,0.5909,0.6617,-0.0476,0.2657,-0.0067,12.84366167,77.66282167,0.81017280,864.60000000,
4.649190,0.4602,0.5909,0.6617,0.1271,0.2651,-0.0024,12.84366167,77.66282167,0.81017280,864.60000000,
4.667145,0.4602,0.5909,0.6617,0.1271,0.2651,-0.0024,12.84366167,77.66282167,0.81017280,864.60000000,
4.669257,0.4602,0.5909,0.6617,0.3207,0.2236,0.0531,12.84366167,77.66282167,0.81017280,864.60000000,
4.670303,0.1693,0.3790,0.5671,0.3207,0.2236,0.0531,12.84366167,77.66282167,0.81017280,864.60000000,
4.685896,0.1693,0.3790,0.5671,0.3207,0.2236,0.0531,12.84366167,77.66282167,0.81017280,864.60000000,
4.687602,0.1666,0.2562,0.2681,0.3207,0.2236,0.0531,12.84366167,77.66282167,0.81017280,864.60000000,
4.689307,0.1666,0.2562,0.2681,0.3189,0.1307,0.1368,12.84366167,77.66282167,0.81017280,864.60000000,
4.706383,0.1666,0.2562,0.2681,0.3189,0.1307,0.1368,12.84366167,77.66282167,0.81017280,864.60000000,
4.708346,0.1666,0.2562,0.2681,0.0990,0.0000,0.1478,12.84366167,77.66282167,0.81017280,864.60000000,
4.709674,0.3295,0.1981,0.4972,0.0990,0.0000,0.1478,12.84366167,77.66282167,0.81017280,864.60000000,
4.726790,0.3295,0.1981,0.4972,0.0990,0.0000,0.1478,12.84366167,77.66282167,0.81017280,864.60000000,
4.728567,0.3295,0.1981,0.4972,-0.0299,0.0550,0.1735,12.84366167,77.66282167,0.81017280,864.60000000,
4.729698,-0.1337,0.3339,1.6047,-0.0299,0.0550,0.1735,12.84366167,77.66282167,0.81017280,864.60000000,
4.747027,-0.1337,0.3339,1.6047,-0.0299,0.0550,0.1735,12.84366167,77.66282167,0.81017280,864.60000000,
4.748732,-0.4454,0.0654,2.1754,-0.0299,0.0550,0.1735,12.84366167,77.66282167,0.81017280,864.60000000,
4.749963,-0.4454,0.0654,2.1754,0.1228,0.2669,0.2376,12.84366167,77.66282167,0.81017280,864.60000000,
4.767011,-0.4454,0.0654,2.1754,0.1228,0.2669,0.2376,12.84366167,77.66282167,0.81017280,864.60000000,
4.770562,-0.5349,0.0625,1.5216,0.1228,0.2669,0.2376,12.84366167,77.66282167,0.81017280,864.60000000,
4.772059,-0.5349,0.0625,1.5216,0.2755,0.2358,0.2938,12.84366167,77.66282167,0.81017280,864.60000000,
4.785985,-0.5349,0.0625,1.5216,0.2755,0.2358,0.2938,12.84366167,77.66282167,0.81017280,864.60000000,
4.787709,0.3212,0.0070,0.3171,0.2755,0.2358,0.2938,12.84366167,77.66282167,0.81017280,864.60000000,
4.790573,0.3212,0.0070,0.3171,0.0525,0.0043,0.2242,12.84366167,77.66282167,0.81017280,864.60000000,
4.806982,0.3212,0.0070,0.3171,0.0525,0.0043,0.2242,12.84366167,77.66282167,0.81017280,864.60000000,
4.808677,0.6038,-0.1256,0.4518,0.0525,0.0043,0.2242,12.84366167,77.66282167,0.81017280,864.60000000,
4.811510,0.6038,-0.1256,0.4518,-0.5528,-0.1680,0.0727,12.84366167,77.66282167,0.81017280,864.60000000,
4.830542,0.6038,-0.1256,0.4518,-0.5528,-0.1680,0.0727,12.84366167,77.66282167,0.81017280,864.60000000,
4.832179,0.4388,-0.6099,2.4679,-0.5528,-0.1680,0.0727,12.84366167,77.66282167,0.81017280,864.60000000,
4.833643,0.4388,-0.6099,2.4679,-0.7929,-0.0635,-0.0165,12.84366167,77.66282167,0.81017280,864.60000000,
4.846166,0.4388,-0.6099,2.4679,-0.7929,-0.0635,-0.0165,12.84366167,77.66282167,0.81017280,864.60000000,
4.847944,-0.0126,-1.1514,3.4257,-0.7929,-0.0635,-0.0165,12.84366167,77.66282167,0.81017280,864.60000000,
4.849532,-0.0126,-1.1514,3.4257,-0.4038,0.1295,-0.0806,12.84366167,77.66282167,0.81017280,864.60000000,
4.866400,-0.0126,-1.1514,3.4257,-0.4038,0.1295,-0.0806,12.84366167,77.66282167,0.81017280,864.60000000,
4.867921,-0.7307,-1.4152,2.1870,-0.4038,0.1295,-0.0806,12.84366167,77.66282167,0.81017280,864.60000000,
4.869412,-0.7307,-1.4152,2.1870,0.2572,0.4142,0.0348,12.84366167,77.66282167,0.81017280,864.60000000,
4.886670,-0.7307,-1.4152,2.1870,0.2572,0.4142,0.0348,12.84366167,77.66282167,0.81017280,864.60000000,
4.888749,-0.8274,-1.0543,-0.1509,0.2572,0.4142,0.0348,12.84366167,77.66282167,0.81017280,864.60000000,
4.890224,-0.8274,-1.0543,-0.1509,0.6035,0.5431,0.2107,12.84366167,77.66282167,0.81017280,864.60000000,
4.907962,-0.8274,-1.0543,-0.1509,0.6035,0.5431,0.2107,12.84366167,77.66282167,0.81017280,864.60000000,
4.909565,-0.4772,-0.0849,-1.7890,0.6035,0.5431,0.2107,12.84366167,77.66282167,0.81017280,864.60000000,
4.910947,-0.4772,-0.0849,-1.7890,0.4368,0.4404,0.2443,12.84366167,77.66282167,0.81017280,864.60000000,
4.925447,-0.4772,-0.0849,-1.7890,0.4368,0.4404,0.2443,12.84366167,77.66282167,0.81017280,864.60000000,
4.927469,-0.1967,0.4486,-2.0415,0.4368,0.4404,0.2443,12.84366167,77.66282167,0.81017280,864.60000000,
4.929041,-0.1967,0.4486,-2.0415,0.0116,0.3256,0.1729,12.84366167,77.66282167,0.81017280,864.60000000,
4.947232,-0.1967,0.4486,-2.0415,0.0116,0.3256,0.1729,12.84366167,77.66282167,0.81017280,864.60000000,
4.948972,-0.0287,0.1243,-0.8351,0.0116,0.3256,0.1729,12.84366167,77.66282167,0.81017280,864.60000000,
4.950461,-0.0287,0.1243,-0.8351,-0.3067,0.2651,0.0336,12.84366167,77.66282167,0.81017280,864.60000000,
4.966053,-0.0287,0.1243,-0.8351,-0.3067,0.2651,0.0336,12.84366167,77.66282167,0.81017280,864.60000000,
4.968069,-0.2032,-0.4643,-0.0846,-0.3067,0.2651,0.0336,12.84366167,77.66282167,0.81017280,864.60000000,
4.969895,-0.2032,-0.4643,-0.0846,-0.3085,0.2340,-0.0244,12.84366167,77.66282167,0.81017280,864.60000000,
4.985943,-0.2032,-0.4643,-0.0846,-0.3085,0.2340,-0.0244,12.84366167,77.66282167,0.81017280,864.60000000,
4.988017,-0.6080,-0.5789,-0.2798,-0.3085,0.2340,-0.0244,12.84366167,77.66282167,0.81017280,864.60000000,
4.989626,-0.6080,-0.5789,-0.2798,-0.2718,0.1906,0.0458,12.84366167,77.66282167,0.81017280,864.60000000,
5.005958,-0.6080,-0.5789,-0.2798,-0.2718,0.1906,0.0458,12.84366167,77.66282167,0.81017280,864.60000000,
5.007770,-0.6080,-0.5789,-0.2798,-0.3427,0.1197,0.1704,12.84366167,77.66282167,0.81017280,864.60000000,
5.009356,-0.5927,-0.5285,-0.3845,-0.3427,0.1197,0.1704,12.84366167,77.66282167,0.81017280,864.60000000,
5.025874,-0.5927,-0.5285,-0.3845,-0.3427,0.1197,0.1704,12.84366167,77.66282167,0.81017280,864.60000000,
5.027834,-0.2649,-0.5213,-0.1133,-0.3427,0.1197,0.1704,12.84366167,77.66282167,0.81017280,864.60000000,
5.029584,-0.2649,-0.5213,-0.1133,-0.3855,-0.0360,0.2272,12.84366167,77.66282167,0.81017280,864.60000000,
5.047114,-0.2649,-0.5213,-0.1133,-0.3855,-0.0360,0.2272,12.84366167,77.66282167,0.81017280,864.60000000,
5.048990,-0.2649,-0.5213,-0.1133,-0.3140,-0.2175,0.2523,12.84366167,77.66282167,0.81017280,864.60000000,
5.050647,0.0898,-0.5703,0.2273,-0.3140,-0.2175,0.2523,12.84366167,77.66282167,0.81017280,864.60000000,
5.066491,0.0898,-0.5703,0.2273,-0.3140,-0.2175,0.2523,12.84366167,77.66282167,0.81017280,864.60000000,
5.068321,0.0898,-0.5703,0.2273,-0.1075,-0.2676,0.2480,12.84366167,77.66282167,0.81017280,864.60000000,
5.069753,0.3359,-0.5211,0.4399,-0.1075,-0.2676,0.2480,12.84366167,77.66282167,0.81017280,864.60000000,
5.086268,0.3359,-0.5211,0.4399,-0.1075,-0.2676,0.2480,12.84366167,77.66282167,0.81017280,864.60000000,
5.088166,0.2800,-0.5625,-0.0071,-0.1075,-0.2676,0.2480,12.84366167,77.66282167,0.81017280,864.60000000,
5.090024,0.2800,-0.5625,-0.0071,0.1466,-0.1203,0.2242,12.84366167,77.66282167,0.81017280,864.60000000,
5.107715,0.2800,-0.5625,-0.0071,0.1466,-0.1203,0.2242,12.84366167,77.66282167,0.81017280,864.60000000,
5.110818,0.2800,-0.5625,-0.0071,0.2669,0.0910,0.1796,12.84366167,77.66282167,0.81017280,864.60000000,
5.112199,0.2452,-0.4308,-0.9811,0.2669,0.0910,0.1796,12.84366167,77.66282167,0.81017280,864.60000000,
5.126461,0.2452,-0.4308,-0.9811,0.2669,0.0910,0.1796,12.84366167,77.66282167,0.81017280,864.60000000,
5.129887,0.2452,-0.4308,-0.9811,0.1655,0.1747,0.1020,12.84366167,77.66282167,0.81017280,864.60000000,
5.131092,0.0394,-0.1501,-2.0500,0.1655,0.1747,0.1020,12.84366167,77.66282167,0.81017280,864.60000000,
5.146978,0.0394,-0.1501,-2.0500,0.1655,0.1747,0.1020,12.84366167,77.66282167,0.81017280,864.60000000,
5.148921,0.0394,-0.1501,-2.0500,-0.0403,0.0825,0.0507,12.84366167,77.66282167,0.81017280,864.60000000,
5.150209,-0.1058,0.1168,-2.1750,-0.0403,0.0825,0.0507,12.84366167,77.66282167,0.81017280,864.60000000,
5.167430,-0.1058,0.1168,-2.1750,-0.0403,0.0825,0.0507,12.84366167,77.66282167,0.81017280,864.60000000,
5.168867,-0.1058,0.1168,-2.1750,-0.1710,-0.1026,0.0709,12.84366167,77.66282167,0.81017280,864.60000000,
5.170423,-0.2009,0.2410,-1.3598,-0.1710,-0.1026,0.0709,12.84366167,77.66282167,0.81017280,864.60000000,
5.185945,-0.2009,0.2410,-1.3598,-0.1710,-0.1026,0.0709,12.84366167,77.66282167,0.81017280,864.60000000,
5.187914,-0.2009,0.2410,-1.3598,-0.0977,-0.2114,0.1148,12.84366167,77.66282167,0.81017280,864.60000000,
5.189152,0.0608,0.0998,-0.7122,-0.0977,-0.2114,0.1148,12.84366167,77.66282167,0.81017280,864.60000000,
5.206014,0.0608,0.0998,-0.7122,-0.0977,-0.2114,0.1148,12.84366167,77.66282167,0.81017280,864.60000000,
5.207658,0.3955,0.1090,-0.4303,-0.0977,-0.2114,0.1148,12.84366167,77.66282167,0.81017280,864.60000000,
5.209270,0.3955,0.1090,-0.4303,0.0354,-0.1814,0.0702,12.84366167,77.66282167,0.81017280,864.60000000,
5.226550,0.3955,0.1090,-0.4303,0.0354,-0.1814,0.0702,12.84366167,77.66282167,0.81017280,864.60000000,
5.228357,0.3955,0.1090,-0.4303,0.1112,-0.1704,-0.0220,12.84366167,77.66282167,0.81017280,864.60000000,
5.229830,0.1109,0.0074,-0.6697,0.1112,-0.1704,-0.0220,12.84366167,77.66282167,0.81017280,864.60000000,
5.247565,0.1109,0.0074,-0.6697,0.1112,-0.1704,-0.0220,12.84366167,77.66282167,0.81017280,864.60000000,
5.249431,0.1109,0.0074,-0.6697,0.0360,-0.1863,-0.0525,12.84366167,77.66282167,0.81017280,864.60000000,
5.250681,-0.3908,0.3037,-0.6936,0.0360,-0.1863,-0.0525,12.84366167,77.66282167,0.81017280,864.60000000,
5.266015,-0.3908,0.3037,-0.6936,0.0360,-0.1863,-0.0525,12.84366167,77.66282167,0.81017280,864.60000000,
5.267790,-0.3908,0.3037,-0.6936,-0.0128,-0.1026,-0.0055,12.84366167,77.66282167,0.81017280,864.60000000,
5.269026,-0.5877,0.1657,-0.0893,-0.0128,-0.1026,-0.0055,12.84366167,77.66282167,0.81017280,864.60000000,
5.285841,-0.5877,0.1657,-0.0893,-0.0128,-0.1026,-0.0055,12.84366167,77.66282167,0.81017280,864.60000000,
5.287748,-0.5411,0.2057,0.6237,-0.0128,-0.1026,-0.0055,12.84366167,77.66282167,0.81017280,864.60000000,
5.289307,-0.5411,0.2057,0.6237,0.0489,-0.1405,0.0397,12.84366167,77.66282167,0.81017280,864.60000000,
5.307812,-0.5411,0.2057,0.6237,0.0489,-0.1405,0.0397,12.84366167,77.66282167,0.81017280,864.60000000,
5.310238,-0.3317,0.3494,1.1417,0.0489,-0.1405,0.0397,12.84366167,77.66282167,0.81017280,864.60000000,
5.311705,-0.3317,0.3494,1.1417,0.1723,-0.2889,0.0770,12.84366167,77.66282167,0.81017280,864.60000000,
5.327644,-0.3317,0.3494,1.1417,0.1723,-0.2889,0.0770,12.84366167,77.66282167,0.81017280,864.60000000,
5.328792,-0.4047,-0.0309,1.2136,0.1723,-0.2889,0.0770,12.84366167,77.66282167,0.81017280,864.60000000,
5.332814,-0.4047,-0.0309,1.2136,0.1888,-0.2761,0.0770,12.84366167,77.66282167,0.81017280,864.60000000,
5.346715,-0.4047,-0.0309,1.2136,0.1888,-0.2761,0.0770,12.84366167,77.66282167,0.81017280,864.60000000,
5.349151,-0.0503,-0.1890,1.7188,0.1888,-0.2761,0.0770,12.84366167,77.66282167,0.81017280,864.60000000,
5.350954,-0.0503,-0.1890,1.7188,0.1087,-0.3329,0.1460,12.84366167,77.66282167,0.81017280,864.60000000,
5.366356,-0.0503,-0.1890,1.7188,0.1087,-0.3329,0.1460,12.84366167,77.66282167,0.81017280,864.60000000,
5.368457,-0.0503,-0.1890,1.7188,0.1228,-0.2822,0.1289,12.84366167,77.66282167,0.81017280,864.60000000,
5.370522,0.2788,-0.0357,2.4024,0.1228,-0.2822,0.1289,12.84366167,77.66282167,0.81017280,864.60000000,
5.386840,0.2788,-0.0357,2.4024,0.1228,-0.2822,0.1289,12.84366167,77.66282167,0.81017280,864.60000000,
5.390323,0.4315,0.1464,2.4198,0.1228,-0.2822,0.1289,12.84366167,77.66282167,0.81017280,864.60000000,
5.392127,0.4315,0.1464,2.4198,0.2407,-0.2529,0.0733,12.84366167,77.66282167,0.81017280,864.60000000,
5.405879,0.4315,0.1464,2.4198,0.2407,-0.2529,0.0733,12.84366167,77.66282167,0.81017280,864.60000000,
5.407510,0.4315,0.1464,2.4198,0.2205,-0.2755,0.0312,12.84366167,77.66282167,0.81017280,864.60000000,
5.408968,0.5523,0.0076,1.6306,0.2205,-0.2755,0.0312,12.84366167,77.66282167,0.81017280,864.60000000,
5.426799,0.5523,0.0076,1.6306,0.2205,-0.2755,0.0312,12.84366167,77.66282167,0.81017280,864.60000000,
5.428494,0.9300,-0.1629,1.2787,0.2205,-0.2755,0.0312,12.84366167,77.66282167,0.81017280,864.60000000,
5.429809,0.9300,-0.1629,1.2787,-0.0208,-0.4270,-0.0568,12.84366167,77.66282167,0.81017280,864.60000000,
5.446250,0.9300,-0.1629,1.2787,-0.0208,-0.4270,-0.0568,12.84366167,77.66282167,0.81017280,864.60000000,
5.448225,0.9300,-0.1629,1.2787,-0.1319,-0.7440,-0.1075,12.84366167,77.66282167,0.81017280,864.60000000,
5.449428,1.0212,-0.6210,1.8029,-0.1319,-0.7440,-0.1075,12.84366167,77.66282167,0.81017280,864.60000000,
5.466153,1.0212,-0.6210,1.8029,-0.1319,-0.7440,-0.1075,12.84366167,77.66282167,0.81017280,864.60000000,
5.467950,1.0212,-0.6210,1.8029,-0.0305,-0.9517,-0.1203,12.84366167,77.66282167,0.81017280,864.60000000,
5.469243,0.8959,-1.0943,2.0914,-0.0305,-0.9517,-0.1203,12.84366167,77.66282167,0.81017280,864.60000000,
5.485792,0.8959,-1.0943,2.0914,-0.0305,-0.9517,-0.1203,12.84366167,77.66282167,0.81017280,864.60000000,
5.488556,0.8959,-1.0943,2.0914,0.1637,-0.5376,-0.1240,12.84366167,77.66282167,0.81017280,864.60000000,
5.489858,0.8834,-1.2899,1.5937,0.1637,-0.5376,-0.1240,12.84366167,77.66282167,0.81017280,864.60000000,
5.506327,0.8834,-1.2899,1.5937,0.1637,-0.5376,-0.1240,12.84366167,77.66282167,0.81017280,864.60000000,
5.508370,0.8118,-1.3403,0.4019,0.1637,-0.5376,-0.1240,12.84366167,77.66282167,0.81017280,864.60000000,
5.509645,0.8118,-1.3403,0.4019,0.2896,0.2706,-0.1491,12.84366167,77.66282167,0.81017280,864.60000000,
5.526591,0.8118,-1.3403,0.4019,0.2896,0.2706,-0.1491,12.84366167,77.66282167,0.81017280,864.60000000,
5.528370,0.8118,-1.3403,0.4019,0.2755,0.8045,-0.1759,12.84366167,77.66282167,0.81017280,864.60000000,
5.529829,0.5724,-0.9790,-0.6814,0.2755,0.8045,-0.1759,12.84366167,77.66282167,0.81017280,864.60000000,
5.546181,0.5724,-0.9790,-0.6814,0.2755,0.8045,-0.1759,12.84366167,77.66282167,0.81017280,864.60000000,
5.547955,0.3293,-0.6026,-1.0339,0.2755,0.8045,-0.1759,12.84366167,77.66282167,0.81017280,864.60000000,
5.549266,0.3293,-0.6026,-1.0339,0.1368,0.7740,-0.1894,12.84366167,77.66282167,0.81017280,864.60000000,
5.566144,0.3293,-0.6026,-1.0339,0.1368,0.7740,-0.1894,12.84366167,77.66282167,0.81017280,864.60000000,
5.568267,0.3293,-0.6026,-1.0339,0.0495,0.4789,-0.1368,12.84366167,77.66282167,0.81017280,864.60000000,
5.569551,0.4121,-0.5396,-0.7734,0.0495,0.4789,-0.1368,12.84366167,77.66282167,0.81017280,864.60000000,
5.586463,0.4121,-0.5396,-0.7734,0.0495,0.4789,-0.1368,12.84366167,77.66282167,0.81017280,864.60000000,
5.588736,0.6956,-0.6160,-0.4756,0.0495,0.4789,-0.1368,12.84366167,77.66282167,0.81017280,864.60000000,
5.590084,0.6956,-0.6160,-0.4756,0.0825,0.1374,-0.0922,12.84366167,77.66282167,0.81017280,864.60000000,
5.607439,0.6956,-0.6160,-0.4756,0.0825,0.1374,-0.0922,12.84366167,77.66282167,0.81017280,864.60000000,
5.609340,0.6956,-0.6160,-0.4756,0.1393,-0.2401,-0.0709,12.84366167,77.66282167,0.81017280,864.60000000,
5.610942,0.9295,-0.4873,-0.3793,0.1393,-0.2401,-0.0709,12.84366167,77.66282167,0.81017280,864.60000000,
5.626548,0.9295,-0.4873,-0.3793,0.1393,-0.2401,-0.0709,12.84366167,77.66282167,0.81017280,864.60000000,
5.628526,1.1604,-0.2818,-0.3281,0.1393,-0.2401,-0.0709,12.84366167,77.66282167,0.81017280,864.60000000,
5.630226,1.1604,-0.2818,-0.3281,0.1069,-0.4527,-0.0947,12.84366167,77.66282167,0.81017280,864.60000000,
5.646870,1.1604,-0.2818,-0.3281,0.1069,-0.4527,-0.0947,12.84366167,77.66282167,0.81017280,864.60000000,
5.648831,1.3492,-0.3435,-0.1876,0.1069,-0.4527,-0.0947,12.84366167,77.66282167,0.81017280,864.60000000,
5.650077,1.3492,-0.3435,-0.1876,0.0232,-0.3189,-0.1472,12.84366167,77.66282167,0.81017280,864.60000000,
5.665585,1.3492,-0.3435,-0.1876,0.0232,-0.3189,-0.1472,12.84366167,77.66282167,0.81017280,864.60000000,
5.667622,1.0110,-0.3977,-0.2788,0.0232,-0.3189,-0.1472,12.84366167,77.66282167,0.81017280,864.60000000,
5.669227,1.0110,-0.3977,-0.2788,-0.0092,0.1258,-0.1991,12.84366167,77.66282167,0.81017280,864.60000000,
5.685980,1.0110,-0.3977,-0.2788,-0.0092,0.1258,-0.1991,12.84366167,77.66282167,0.81017280,864.60000000,
5.687805,0.5050,-0.3251,-0.5082,-0.0092,0.1258,-0.1991,12.84366167,77.66282167,0.81017280,864.60000000,
5.689224,0.5050,-0.3251,-0.5082,0.0299,0.5223,-0.1717,12.84366167,77.66282167,0.81017280,864.60000000,
5.706394,0.5050,-0.3251,-0.5082,0.0299,0.5223,-0.1717,12.84366167,77.66282167,0.81017280,864.60000000,
5.708364,0.5050,-0.3251,-0.5082,0.1020,0.5461,-0.1020,12.84366167,77.66282167,0.81017280,864.60000000,
5.709804,0.3894,-0.1419,-0.7964,0.1020,0.5461,-0.1020,12.84366167,77.66282167,0.81017280,864.60000000,
5.726212,0.3894,-0.1419,-0.7964,0.1020,0.5461,-0.1020,12.84366167,77.66282167,0.81017280,864.60000000,
5.728223,0.6789,-0.1026,-1.2220,0.1020,0.5461,-0.1020,12.84366167,77.66282167,0.81017280,864.60000000,
5.729784,0.6789,-0.1026,-1.2220,0.2028,0.4447,-0.0324,12.84366167,77.66282167,0.81017280,864.60000000,
5.745751,0.6789,-0.1026,-1.2220,0.2028,0.4447,-0.0324,12.84366167,77.66282167,0.81017280,864.60000000,
5.747585,0.9306,0.2187,-1.3938,0.2028,0.4447,-0.0324,12.84366167,77.66282167,0.81017280,864.60000000,
5.748751,0.9306,0.2187,-1.3938,0.2254,0.2132,-0.0324,12.84366167,77.66282167,0.81017280,864.60000000,
5.767133,0.9306,0.2187,-1.3938,0.2254,0.2132,-0.0324,12.84366167,77.66282167,0.81017280,864.60000000,
5.768974,1.0751,0.3280,-1.6008,0.2254,0.2132,-0.0324,12.84366167,77.66282167,0.81017280,864.60000000,
5.770276,1.0751,0.3280,-1.6008,0.1790,0.0440,-0.0195,12.84366167,77.66282167,0.81017280,864.60000000,
5.786933,1.0751,0.3280,-1.6008,0.1790,0.0440,-0.0195,12.84366167,77.66282167,0.81017280,864.60000000,
5.789017,1.0751,0.3280,-1.6008,0.0757,-0.0324,-0.0379,12.84366167,77.66282167,0.81017280,864.60000000,
5.791283,1.2521,0.2136,-1.4883,0.0757,-0.0324,-0.0379,12.84366167,77.66282167,0.81017280,864.60000000,
5.807405,1.2521,0.2136,-1.4883,0.0757,-0.0324,-0.0379,12.84366167,77.66282167,0.81017280,864.60000000,
5.809191,1.2844,0.2908,-0.9736,0.0757,-0.0324,-0.0379,12.84366167,77.66282167,0.81017280,864.60000000,
5.810637,1.2844,0.2908,-0.9736,0.0110,-0.1393,-0.0916,12.84366167,77.66282167,0.81017280,864.60000000,
5.826721,1.2844,0.2908,-0.9736,0.0110,-0.1393,-0.0916,12.84366167,77.66282167,0.81017280,864.60000000,
5.828608,1.3898,0.4624,-0.6620,0.0110,-0.1393,-0.0916,12.84366167,77.66282167,0.81017280,864.60000000,
5.829831,1.3898,0.4624,-0.6620,-0.0195,-0.1368,-0.1216,12.84366167,77.66282167,0.81017280,864.60000000,
5.847259,1.3898,0.4624,-0.6620,-0.0195,-0.1368,-0.1216,12.84366167,77.66282167,0.81017280,864.60000000,
5.849544,1.3898,0.4624,-0.6620,-0.0696,0.0128,-0.1356,12.84366167,77.66282167,0.81017280,864.60000000,
5.851032,1.4024,0.4465,-0.5194,-0.0696,0.0128,-0.1356,12.84366167,77.66282167,0.81017280,864.60000000,
5.865910,1.4024,0.4465,-0.5194,-0.0696,0.0128,-0.1356,12.84366167,77.66282167,0.81017280,864.60000000,
5.867840,0.9608,0.5268,-0.1418,-0.0696,0.0128,-0.1356,12.84366167,77.66282167,0.81017280,864.60000000,
5.869146,0.9608,0.5268,-0.1418,-0.0861,0.1503,-0.1161,12.84366167,77.66282167,0.81017280,864.60000000,
5.886642,0.9608,0.5268,-0.1418,-0.0861,0.1503,-0.1161,12.84366167,77.66282167,0.81017280,864.60000000,
5.888503,0.9608,0.5268,-0.1418,0.0360,0.1888,-0.0733,12.84366167,77.66282167,0.81017280,864.60000000,
5.889471,0.7133,0.6642,0.3585,0.0360,0.1888,-0.0733,12.84366167,77.66282167,0.81017280,864.60000000,
5.906086,0.7133,0.6642,0.3585,0.0360,0.1888,-0.0733,12.84366167,77.66282167,0.81017280,864.60000000,
5.907642,0.5273,0.7584,0.3984,0.0360,0.1888,-0.0733,12.84366167,77.66282167,0.81017280,864.60000000,
5.909008,0.5273,0.7584,0.3984,0.2107,0.2028,-0.0440,12.84366167,77.66282167,0.81017280,864.60000000,
5.926183,0.5273,0.7584,0.3984,0.2107,0.2028,-0.0440,12.84366167,77.66282167,0.81017280,864.60000000,
5.928007,0.3843,0.9379,0.0837,0.2107,0.2028,-0.0440,12.84366167,77.66282167,0.81017280,864.60000000,
5.929171,0.3843,0.9379,0.0837,0.2957,0.2022,-0.0403,12.84366167,77.66282167,0.81017280,864.60000000,
5.946253,0.3843,0.9379,0.0837,0.2957,0.2022,-0.0403,12.84366167,77.66282167,0.81017280,864.60000000,
5.948057,0.3843,0.9379,0.0837,0.1900,0.1570,-0.0354,12.84366167,77.66282167,0.81017280,864.60000000,
5.949054,0.3938,0.8816,-0.0572,0.1900,0.1570,-0.0354,12.84366167,77.66282167,0.81017280,864.60000000,
5.966448,0.3938,0.8816,-0.0572,0.1900,0.1570,-0.0354,12.84366167,77.66282167,0.81017280,864.60000000,
5.968196,0.3938,0.8816,-0.0572,-0.0556,0.2193,-0.0128,12.84366167,77.66282167,0.81017280,864.60000000,
5.969162,0.3282,0.7013,0.4642,-0.0556,0.2193,-0.0128,12.84366167,77.66282167,0.81017280,864.60000000,
5.985821,0.3282,0.7013,0.4642,-0.0556,0.2193,-0.0128,12.84366167,77.66282167,0.81017280,864.60000000,
5.988057,0.2245,0.6133,1.4276,-0.0556,0.2193,-0.0128,12.84366167,77.66282167,0.81017280,864.60000000,
5.989349,0.2245,0.6133,1.4276,-0.1497,0.5406,0.0098,12.84366167,77.66282167,0.81017280,864.60000000,
6.006125,0.2245,0.6133,1.4276,-0.1497,0.5406,0.0098,12.84366167,77.66282167,0.81017280,864.60000000,
6.007869,0.1815,0.3916,1.7427,-0.1497,0.5406,0.0098,12.84366167,77.66282167,0.81017280,864.60000000,
6.009310,0.1815,0.3916,1.7427,0.0348,0.8540,-0.0635,12.84366167,77.66282167,0.81017280,864.60000000,
6.027135,0.1815,0.3916,1.7427,0.0348,0.8540,-0.0635,12.84366167,77.66282167,0.81017280,864.60000000,
6.028679,0.3316,0.1486,0.6963,0.0348,0.8540,-0.0635,12.84366167,77.66282167,0.81017280,864.60000000,
6.029850,0.3316,0.1486,0.6963,0.2169,0.8363,-0.1747,12.84366167,77.66282167,0.81017280,864.60000000,
6.045909,0.3316,0.1486,0.6963,0.2169,0.8363,-0.1747,12.84366167,77.66282167,0.81017280,864.60000000,
6.047646,0.0106,0.4733,-0.4928,0.2169,0.8363,-0.1747,12.84366167,77.66282167,0.81017280,864.60000000,
6.048859,0.0106,0.4733,-0.4928,0.0757,0.4759,-0.2181,12.84366167,77.66282167,0.81017280,864.60000000,
6.067072,0.0106,0.4733,-0.4928,0.0757,0.4759,-0.2181,12.84366167,77.66282167,0.81017280,864.60000000,
6.068840,-0.2708,0.7478,-0.5523,0.0757,0.4759,-0.2181,12.84366167,77.66282167,0.81017280,864.60000000,
6.070362,-0.2708,0.7478,-0.5523,-0.4032,-0.2535,-0.2236,12.84366167,77.66282167,0.81017280,864.60000000,
6.086679,-0.2708,0.7478,-0.5523,-0.4032,-0.2535,-0.2236,12.84366167,77.66282167,0.81017280,864.60000000,
6.088659,-0.3967,0.2387,1.1209,-0.4032,-0.2535,-0.2236,12.84366167,77.66282167,0.81017280,864.60000000,
6.090361,-0.3967,0.2387,1.1209,-0.6396,-0.9401,-0.1808,12.84366167,77.66282167,0.81017280,864.60000000,
6.107242,-0.3967,0.2387,1.1209,-0.6396,-0.9401,-0.1808,12.84366167,77.66282167,0.81017280,864.60000000,
6.109202,-0.5431,-0.5460,2.8376,-0.6396,-0.9401,-0.1808,12.84366167,77.66282167,0.81017280,864.60000000,
6.110617,-0.5431,-0.5460,2.8376,-0.4184,-1.4374,-0.0464,12.84366167,77.66282167,0.81017280,864.60000000,
6.126094,-0.5431,-0.5460,2.8376,-0.4184,-1.4374,-0.0464,12.84366167,77.66282167,0.81017280,864.60000000,
6.129165,-0.7695,-1.1601,2.9092,-0.4184,-1.4374,-0.0464,12.84366167,77.66282167,0.81017280,864.60000000,
6.130685,-0.7695,-1.1601,2.9092,0.1545,-1.3421,0.1552,12.84366167,77.66282167,0.81017280,864.60000000,
6.146095,-0.7695,-1.1601,2.9092,0.1545,-1.3421,0.1552,12.84366167,77.66282167,0.81017280,864.60000000,
6.148004,-1.0565,-1.2854,1.4746,0.1545,-1.3421,0.1552,12.84366167,77.66282167,0.81017280,864.60000000,
6.149300,-1.0565,-1.2854,1.4746,0.5785,-0.6658,0.3549,12.84366167,77.66282167,0.81017280,864.60000000,
6.166221,-1.0565,-1.2854,1.4746,0.5785,-0.6658,0.3549,12.84366167,77.66282167,0.81017280,864.60000000,
6.168247,-1.0565,-1.2854,1.4746,0.5974,0.0660,0.4948,12.84366167,77.66282167,0.81017280,864.60000000,
6.169569,-1.3701,-0.8713,-0.4048,0.5974,0.0660,0.4948,12.84366167,77.66282167,0.81017280,864.60000000,
6.188625,-1.3701,-0.8713,-0.4048,0.5974,0.0660,0.4948,12.84366167,77.66282167,0.81017280,864.60000000,
6.192013,-1.3701,-0.8713,-0.4048,0.3036,0.4636,0.5437,12.84366167,77.66282167,0.81017280,864.60000000,
6.193510,-1.3424,-0.5012,-1.4192,0.3036,0.4636,0.5437,12.84366167,77.66282167,0.81017280,864.60000000,
6.206440,-1.3424,-0.5012,-1.4192,0.3036,0.4636,0.5437,12.84366167,77.66282167,0.81017280,864.60000000,
6.208509,-1.3424,-0.5012,-1.4192,-0.0464,0.4233,0.5596,12.84366167,77.66282167,0.81017280,864.60000000,
6.210145,-1.0867,-0.2637,-1.1447,-0.0464,0.4233,0.5596,12.84366167,77.66282167,0.81017280,864.60000000,
6.226150,-1.0867,-0.2637,-1.1447,-0.0464,0.4233,0.5596,12.84366167,77.66282167,0.81017280,866.70000000,
6.228075,-0.4413,-0.5209,0.0136,-0.0464,0.4233,0.5596,12.84368500,77.66283000,0.91517609,866.70000000,
6.229892,-0.4413,-0.5209,0.0136,-0.2211,0.0489,0.4966,12.84368500,77.66283000,0.91517609,866.70000000,
6.246248,-0.4413,-0.5209,0.0136,-0.2211,0.0489,0.4966,12.84368500,77.66283000,0.91517609,866.70000000,
6.248017,-0.4413,-0.5209,0.0136,-0.1900,-0.2694,0.4117,12.84368500,77.66283000,0.91517609,866.70000000,
6.249302,-0.1321,-0.7838,0.7486,-0.1900,-0.2694,0.4117,12.84368500,77.66283000,0.91517609,866.70000000,
6.267801,-0.1321,-0.7838,0.7486,-0.1900,-0.2694,0.4117,12.84368500,77.66283000,0.91517609,866.70000000,
6.270772,-0.0407,-0.9375,1.1166,-0.1900,-0.2694,0.4117,12.84368500,77.66283000,0.91517609,866.70000000,
6.272141,-0.0407,-0.9375,1.1166,-0.1069,-0.4820,0.3305,12.84368500,77.66283000,0.91517609,866.70000000,
6.286294,-0.0407,-0.9375,1.1166,-0.1069,-0.4820,0.3305,12.84368500,77.66283000,0.91517609,866.70000000,
6.287935,-0.0407,-0.9375,1.1166,-0.0373,-0.4038,0.2755,12.84368500,77.66283000,0.91517609,866.70000000,
6.288995,-0.0947,-1.1482,0.9183,-0.0373,-0.4038,0.2755,12.84368500,77.66283000,0.91517609,866.70000000,
6.307512,-0.0947,-1.1482,0.9183,-0.0373,-0.4038,0.2755,12.84368500,77.66283000,0.91517609,866.70000000,
6.309413,-0.1302,-1.2560,0.4397,-0.0373,-0.4038,0.2755,12.84368500,77.66283000,0.91517609,866.70000000,
6.311027,-0.1302,-1.2560,0.4397,0.0263,-0.0935,0.2657,12.84368500,77.66283000,0.91517609,866.70000000,
6.325984,-0.1302,-1.2560,0.4397,0.0263,-0.0935,0.2657,12.84368500,77.66283000,0.91517609,866.70000000,
6.327934,-0.3674,-1.0728,-0.0411,0.0263,-0.0935,0.2657,12.84368500,77.66283000,0.91517609,866.70000000,
6.329328,-0.3674,-1.0728,-0.0411,0.0782,0.1478,0.2230,12.84368500,77.66283000,0.91517609,866.70000000,
6.345907,-0.3674,-1.0728,-0.0411,0.0782,0.1478,0.2230,12.84368500,77.66283000,0.91517609,866.70000000,
6.348786,-0.5962,-0.9771,-0.7405,0.0782,0.1478,0.2230,12.84368500,77.66283000,0.91517609,866.70000000,
6.350308,-0.5962,-0.9771,-0.7405,0.1112,0.2981,0.1674,12.84368500,77.66283000,0.91517609,866.70000000,
6.366062,-0.5962,-0.9771,-0.7405,0.1112,0.2981,0.1674,12.84368500,77.66283000,0.91517609,866.70000000,
6.368171,-0.5962,-0.9771,-0.7405,0.1161,0.3940,0.1894,12.84368500,77.66283000,0.91517609,866.70000000,
6.369561,-0.8513,-0.9877,-1.2129,0.1161,0.3940,0.1894,12.84368500,77.66283000,0.91517609,866.70000000,
6.386400,-0.8513,-0.9877,-1.2129,0.1161,0.3940,0.1894,12.84368500,77.66283000,0.91517609,866.70000000,
6.388221,-0.8513,-0.9877,-1.2129,0.1338,0.4264,0.2602,12.84368500,77.66283000,0.91517609,866.70000000,
6.389562,-0.6466,-1.0196,-1.5915,0.1338,0.4264,0.2602,12.84368500,77.66283000,0.91517609,866.70000000,
6.407591,-0.6466,-1.0196,-1.5915,0.1338,0.4264,0.2602,12.84368500,77.66283000,0.91517609,866.70000000,
6.409721,-0.5041,-0.6493,-1.9726,0.1338,0.4264,0.2602,12.84368500,77.66283000,0.91517609,866.70000000,
6.411101,-0.5041,-0.6493,-1.9726,0.1222,0.4172,0.2786,12.84368500,77.66283000,0.91517609,866.70000000,
6.425916,-0.5041,-0.6493,-1.9726,0.1222,0.4172,0.2786,12.84368500,77.66283000,0.91517609,866.70000000,
6.427909,-0.4821,-0.2555,-2.1051,0.1222,0.4172,0.2786,12.84368500,77.66283000,0.91517609,866.70000000,
6.429264,-0.4821,-0.2555,-2.1051,0.0458,0.3213,0.2755,12.84368500,77.66283000,0.91517609,866.70000000,
6.446191,-0.4821,-0.2555,-2.1051,0.0458,0.3213,0.2755,12.84368500,77.66283000,0.91517609,866.70000000,
6.448285,-0.1999,-0.1665,-1.9312,0.0458,0.3213,0.2755,12.84368500,77.66283000,0.91517609,866.70000000,
6.449732,-0.1999,-0.1665,-1.9312,-0.0684,0.2822,0.2676,12.84368500,77.66283000,0.91517609,866.70000000,
6.466141,-0.1999,-0.1665,-1.9312,-0.0684,0.2822,0.2676,12.84368500,77.66283000,0.91517609,866.70000000,
6.468242,0.1546,-0.1786,-1.4370,-0.0684,0.2822,0.2676,12.84368500,77.66283000,0.91517609,866.70000000,
6.469724,0.1546,-0.1786,-1.4370,-0.1350,0.2877,0.2718,12.84368500,77.66283000,0.91517609,866.70000000,
6.489841,0.1546,-0.1786,-1.4370,-0.1350,0.2877,0.2718,12.84368500,77.66283000,0.91517609,866.70000000,
6.493134,0.1546,-0.1786,-1.4370,-0.1332,0.2120,0.2254,12.84368500,77.66283000,0.91517609,866.70000000,
6.495444,0.4358,0.0104,-0.8369,-0.1332,0.2120,0.2254,12.84368500,77.66283000,0.91517609,866.70000000,
6.506257,0.4358,0.0104,-0.8369,-0.1332,0.2120,0.2254,12.84368500,77.66283000,0.91517609,866.70000000,
6.508060,0.5912,0.3259,-0.1506,-0.1332,0.2120,0.2254,12.84368500,77.66283000,0.91517609,866.70000000,
6.509705,0.5912,0.3259,-0.1506,-0.0929,0.0776,0.1423,12.84368500,77.66283000,0.91517609,866.70000000,
6.526131,0.5912,0.3259,-0.1506,-0.0929,0.0776,0.1423,12.84368500,77.66283000,0.91517609,866.70000000,
6.527934,0.7508,0.2601,0.2053,-0.0929,0.0776,0.1423,12.84368500,77.66283000,0.91517609,866.70000000,
6.529065,0.7508,0.2601,0.2053,-0.0116,0.0745,0.0831,12.84368500,77.66283000,0.91517609,866.70000000,
6.546510,0.7508,0.2601,0.2053,-0.0116,0.0745,0.0831,12.84368500,77.66283000,0.91517609,866.70000000,
6.548128,0.7761,0.2523,0.5053,-0.0116,0.0745,0.0831,12.84368500,77.66283000,0.91517609,866.70000000,
6.549234,0.7761,0.2523,0.5053,0.0593,0.1460,0.0409,12.84368500,77.66283000,0.91517609,866.70000000,
6.566750,0.7761,0.2523,0.5053,0.0593,0.1460,0.0409,12.84368500,77.66283000,0.91517609,866.70000000,
6.569007,0.7623,0.2587,0.6613,0.0593,0.1460,0.0409,12.84368500,77.66283000,0.91517609,866.70000000,
6.570421,0.7623,0.2587,0.6613,0.1374,0.1930,-0.0165,12.84368500,77.66283000,0.91517609,866.70000000,
6.586872,0.7623,0.2587,0.6613,0.1374,0.1930,-0.0165,12.84368500,77.66283000,0.91517609,866.70000000,
6.588949,0.7623,0.2587,0.6613,0.1228,0.1710,-0.1063,12.84368500,77.66283000,0.91517609,866.70000000,
6.590120,0.7114,0.2648,0.4694,0.1228,0.1710,-0.1063,12.84368500,77.66283000,0.91517609,866.70000000,
6.605822,0.7114,0.2648,0.4694,0.1228,0.1710,-0.1063,12.84368500,77.66283000,0.91517609,866.70000000,
6.607768,0.7114,0.2648,0.4694,-0.0238,0.1124,-0.1833,12.84368500,77.66283000,0.91517609,866.70000000,
6.609181,0.7428,0.2019,0.5934,-0.0238,0.1124,-0.1833,12.84368500,77.66283000,0.91517609,866.70000000,
6.625913,0.7428,0.2019,0.5934,-0.0238,0.1124,-0.1833,12.84368500,77.66283000,0.91517609,866.70000000,
6.627855,0.7034,0.0096,1.3946,-0.0238,0.1124,-0.1833,12.84368500,77.66283000,0.91517609,866.70000000,
6.628962,0.7034,0.0096,1.3946,-0.2144,-0.0373,-0.2498,12.84368500,77.66283000,0.91517609,866.70000000,
6.645793,0.7034,0.0096,1.3946,-0.2144,-0.0373,-0.2498,12.84368500,77.66283000,0.91517609,866.70000000,
6.647856,0.3233,-0.2208,2.5699,-0.2144,-0.0373,-0.2498,12.84368500,77.66283000,0.91517609,866.70000000,
6.649091,0.3233,-0.2208,2.5699,-0.2254,-0.1228,-0.2291,12.84368500,77.66283000,0.91517609,866.70000000,
6.666836,0.3233,-0.2208,2.5699,-0.2254,-0.1228,-0.2291,12.84368500,77.66283000,0.91517609,866.70000000,
6.668739,-0.0886,-0.3604,2.8081,-0.2254,-0.1228,-0.2291,12.84368500,77.66283000,0.91517609,866.70000000,
6.670180,-0.0886,-0.3604,2.8081,0.0104,-0.0519,-0.1436,12.84368500,77.66283000,0.91517609,866.70000000,
6.686830,-0.0886,-0.3604,2.8081,0.0104,-0.0519,-0.1436,12.84368500,77.66283000,0.91517609,866.70000000,
6.689798,-0.3830,-0.3930,1.4056,0.0104,-0.0519,-0.1436,12.84368500,77.66283000,0.91517609,866.70000000,
6.691317,-0.3830,-0.3930,1.4056,0.2162,-0.0226,-0.0684,12.84368500,77.66283000,0.91517609,866.70000000,
6.705669,-0.3830,-0.3930,1.4056,0.2162,-0.0226,-0.0684,12.84368500,77.66283000,0.91517609,866.70000000,
6.707850,-0.2725,-0.1525,-0.0476,0.2162,-0.0226,-0.0684,12.84368500,77.66283000,0.91517609,866.70000000,
6.709246,-0.2725,-0.1525,-0.0476,0.0238,-0.1093,-0.0067,12.84368500,77.66283000,0.91517609,866.70000000,
6.726120,-0.2725,-0.1525,-0.0476,0.0238,-0.1093,-0.0067,12.84368500,77.66283000,0.91517609,866.70000000,
6.728022,-0.2725,-0.1525,-0.0476,-0.4148,-0.2596,0.0153,12.84368500,77.66283000,0.91517609,866.70000000,
6.729395,0.4706,0.0248,-0.2482,-0.4148,-0.2596,0.0153,12.84368500,77.66283000,0.91517609,866.70000000,
6.747268,0.4706,0.0248,-0.2482,-0.4148,-0.2596,0.0153,12.84368500,77.66283000,0.91517609,866.70000000,
6.749238,0.4706,0.0248,-0.2482,-0.7135,-0.3745,-0.1014,12.84368500,77.66283000,0.91517609,866.70000000,
6.750564,1.1927,-0.0839,0.8075,-0.7135,-0.3745,-0.1014,12.84368500,77.66283000,0.91517609,866.70000000,
6.766958,1.1927,-0.0839,0.8075,-0.7135,-0.3745,-0.1014,12.84368500,77.66283000,0.91517609,866.70000000,
6.768835,1.1826,-0.4905,2.0395,-0.7135,-0.3745,-0.1014,12.84368500,77.66283000,0.91517609,866.70000000,
6.770201,1.1826,-0.4905,2.0395,-0.6267,-0.4148,-0.2425,12.84368500,77.66283000,0.91517609,866.70000000,
6.786888,1.1826,-0.4905,2.0395,-0.6267,-0.4148,-0.2425,12.84368500,77.66283000,0.91517609,866.70000000,
6.789782,0.6297,-0.5965,2.5249,-0.6267,-0.4148,-0.2425,12.84368500,77.66283000,0.91517609,866.70000000,
6.792368,0.6297,-0.5965,2.5249,-0.1808,-0.3170,-0.2443,12.84368500,77.66283000,0.91517609,866.70000000,
6.805653,0.6297,-0.5965,2.5249,-0.1808,-0.3170,-0.2443,12.84368500,77.66283000,0.91517609,866.70000000,
6.807543,0.1832,-0.6397,1.4657,-0.1808,-0.3170,-0.2443,12.84368500,77.66283000,0.91517609,866.70000000,
6.809690,0.1832,-0.6397,1.4657,0.3348,-0.0538,-0.1417,12.84368500,77.66283000,0.91517609,866.70000000,
6.826154,0.1832,-0.6397,1.4657,0.3348,-0.0538,-0.1417,12.84368500,77.66283000,0.91517609,866.70000000,
6.828042,0.0950,-0.5694,-0.1590,0.3348,-0.0538,-0.1417,12.84368500,77.66283000,0.91517609,866.70000000,
6.829719,0.0950,-0.5694,-0.1590,0.5302,0.0580,-0.0635,12.84368500,77.66283000,0.91517609,866.70000000,
6.845854,0.0950,-0.5694,-0.1590,0.5302,0.0580,-0.0635,12.84368500,77.66283000,0.91517609,866.70000000,
6.847713,0.5520,-0.4782,-1.1916,0.5302,0.0580,-0.0635,12.84368500,77.66283000,0.91517609,866.70000000,
6.849056,0.5520,-0.4782,-1.1916,0.3855,-0.0220,-0.0672,12.84368500,77.66283000,0.91517609,866.70000000,
6.866935,0.5520,-0.4782,-1.1916,0.3855,-0.0220,-0.0672,12.84368500,77.66283000,0.91517609,866.70000000,
6.868911,0.5520,-0.4782,-1.1916,0.1258,-0.2004,-0.1576,12.84368500,77.66283000,0.91517609,866.70000000,
6.870363,0.9992,-0.3450,-1.0356,0.1258,-0.2004,-0.1576,12.84368500,77.66283000,0.91517609,866.70000000,
6.885820,0.9992,-0.3450,-1.0356,0.1258,-0.2004,-0.1576,12.84368500,77.66283000,0.91517609,866.70000000,
6.887339,1.3449,-0.4833,-0.3064,0.1258,-0.2004,-0.1576,12.84368500,77.66283000,0.91517609,866.70000000,
6.888819,1.3449,-0.4833,-0.3064,-0.0195,-0.3512,-0.2853,12.84368500,77.66283000,0.91517609,866.70000000,
6.905911,1.3449,-0.4833,-0.3064,-0.0195,-0.3512,-0.2853,12.84368500,77.66283000,0.91517609,866.70000000,
6.907918,1.1027,-0.5520,-0.0648,-0.0195,-0.3512,-0.2853,12.84368500,77.66283000,0.91517609,866.70000000,
6.909459,1.1027,-0.5520,-0.0648,-0.0232,-0.2932,-0.4417,12.84368500,77.66283000,0.91517609,866.70000000,
6.925754,1.1027,-0.5520,-0.0648,-0.0232,-0.2932,-0.4417,12.84368500,77.66283000,0.91517609,866.70000000,
6.927898,1.1027,-0.5520,-0.0648,-0.0226,-0.1662,-0.5131,12.84368500,77.66283000,0.91517609,866.70000000,
6.929104,0.5681,-0.4574,-0.4452,-0.0226,-0.1662,-0.5131,12.84368500,77.66283000,0.91517609,866.70000000,
6.946149,0.5681,-0.4574,-0.4452,-0.0226,-0.1662,-0.5131,12.84368500,77.66283000,0.91517609,866.70000000,
6.948256,0.2148,-0.4165,-1.0119,-0.0226,-0.1662,-0.5131,12.84368500,77.66283000,0.91517609,866.70000000,
6.949603,0.2148,-0.4165,-1.0119,-0.0837,0.0134,-0.5156,12.84368500,77.66283000,0.91517609,866.70000000,
6.966873,0.2148,-0.4165,-1.0119,-0.0837,0.0134,-0.5156,12.84368500,77.66283000,0.91517609,866.70000000,
6.968782,0.2148,-0.4165,-1.0119,-0.1234,0.1826,-0.4960,12.84368500,77.66283000,0.91517609,866.70000000,
6.970307,-0.1374,-0.2467,-1.2810,-0.1234,0.1826,-0.4960,12.84368500,77.66283000,0.91517609,866.70000000,
6.988769,-0.1374,-0.2467,-1.2810,-0.1234,0.1826,-0.4960,12.84368500,77.66283000,0.91517609,866.70000000,
6.992731,-0.2323,-0.1704,-1.7061,-0.1234,0.1826,-0.4960,12.84368500,77.66283000,0.91517609,866.70000000,
6.994658,-0.2323,-0.1704,-1.7061,-0.0855,0.2370,-0.4917,12.84368500,77.66283000,0.91517609,866.70000000,
7.006262,-0.2323,-0.1704,-1.7061,-0.0855,0.2370,-0.4917,12.84368500,77.66283000,0.91517609,866.70000000,
7.008471,-0.4251,-0.0213,-2.2698,-0.0855,0.2370,-0.4917,12.84368500,77.66283000,0.91517609,866.70000000,
7.010130,-0.4251,-0.0213,-2.2698,-0.1197,0.1906,-0.5223,12.84368500,77.66283000,0.91517609,866.70000000,
7.026229,-0.4251,-0.0213,-2.2698,-0.1197,0.1906,-0.5223,12.84368500,77.66283000,0.91517609,866.70000000,
7.028262,-0.7182,0.2880,-2.3038,-0.1197,0.1906,-0.5223,12.84368500,77.66283000,0.91517609,866.70000000,
7.030035,-0.7182,0.2880,-2.3038,-0.2566,0.1057,-0.4441,12.84368500,77.66283000,0.91517609,866.70000000,
7.046402,-0.7182,0.2880,-2.3038,-0.2566,0.1057,-0.4441,12.84368500,77.66283000,0.91517609,866.70000000,
7.048283,-0.3283,0.2522,-1.6614,-0.2566,0.1057,-0.4441,12.84368500,77.66283000,0.91517609,866.70000000,
7.050086,-0.3283,0.2522,-1.6614,-0.3409,-0.0745,-0.3268,12.84368500,77.66283000,0.91517609,866.70000000,
7.066371,-0.3283,0.2522,-1.6614,-0.3409,-0.0745,-0.3268,12.84368500,77.66283000,0.91517609,866.70000000,
7.068460,0.3387,0.2347,-0.8038,-0.3409,-0.0745,-0.3268,12.84368500,77.66283000,0.91517609,866.70000000,
7.070044,0.3387,0.2347,-0.8038,-0.2572,-0.2938,-0.3189,12.84368500,77.66283000,0.91517609,866.70000000,
7.089606,0.3387,0.2347,-0.8038,-0.2572,-0.2938,-0.3189,12.84368500,77.66283000,0.91517609,866.70000000,
7.093053,0.3387,0.2347,-0.8038,-0.1429,-0.4019,-0.4246,12.84368500,77.66283000,0.91517609,866.70000000,
7.095149,0.3917,0.4266,-0.4916,-0.1429,-0.4019,-0.4246,12.84368500,77.66283000,0.91517609,866.70000000,
7.106290,0.3917,0.4266,-0.4916,-0.1429,-0.4019,-0.4246,12.84368500,77.66283000,0.91517609,866.70000000,
7.108193,0.0401,0.3802,-0.6937,-0.1429,-0.4019,-0.4246,12.84368500,77.66283000,0.91517609,866.70000000,
7.109656,0.0401,0.3802,-0.6937,-0.1576,-0.3250,-0.4893,12.84368500,77.66283000,0.91517609,866.70000000,
7.126122,0.0401,0.3802,-0.6937,-0.1576,-0.3250,-0.4893,12.84368500,77.66283000,0.91517609,866.70000000,
7.129128,-0.3433,0.3777,-0.5725,-0.1576,-0.3250,-0.4893,12.84368500,77.66283000,0.91517609,866.70000000,
7.130462,-0.3433,0.3777,-0.5725,-0.3213,-0.1118,-0.4129,12.84368500,77.66283000,0.91517609,866.70000000,
7.146260,-0.3433,0.3777,-0.5725,-0.3213,-0.1118,-0.4129,12.84368500,77.66283000,0.91517609,866.70000000,
7.147972,-0.2575,0.4220,0.0571,-0.3213,-0.1118,-0.4129,12.84368500,77.66283000,0.91517609,866.70000000,
7.149514,-0.2575,0.4220,0.0571,-0.4050,0.0409,-0.2816,12.84368500,77.66283000,0.91517609,866.70000000,
7.167485,-0.2575,0.4220,0.0571,-0.4050,0.0409,-0.2816,12.84368500,77.66283000,0.91517609,866.70000000,
7.169416,-0.0478,0.5528,0.7527,-0.4050,0.0409,-0.2816,12.84368500,77.66283000,0.91517609,866.70000000,
7.171163,-0.0478,0.5528,0.7527,-0.3054,0.1069,-0.2150,12.84368500,77.66283000,0.91517609,866.70000000,
7.185945,-0.0478,0.5528,0.7527,-0.3054,0.1069,-0.2150,12.84368500,77.66283000,0.91517609,866.70000000,
7.188002,-0.0700,0.7437,1.0923,-0.3054,0.1069,-0.2150,12.84368500,77.66283000,0.91517609,866.70000000,
7.189219,-0.0700,0.7437,1.0923,-0.0318,0.1002,-0.1759,12.84368500,77.66283000,0.91517609,866.70000000,
7.206768,-0.0700,0.7437,1.0923,-0.0318,0.1002,-0.1759,12.84368500,77.66283000,0.91517609,866.70000000,
7.209006,-0.2582,0.8987,0.4916,-0.0318,0.1002,-0.1759,12.84368500,77.66283000,0.91517609,866.70000000,
7.211095,-0.2582,0.8987,0.4916,0.2315,0.0910,-0.1032,12.84368500,77.66283000,0.91517609,866.70000000,
7.226308,-0.2582,0.8987,0.4916,0.2315,0.0910,-0.1032,12.84368500,77.66283000,0.91517609,868.20000000,
7.228152,-0.3843,1.2059,-0.1272,0.2315,0.0910,-0.1032,12.84368833,77.66284667,0.97128081,868.20000000,
7.229995,-0.3843,1.2059,-0.1272,0.2834,-0.0086,-0.0061,12.84368833,77.66284667,0.97128081,868.20000000,
7.247102,-0.3843,1.2059,-0.1272,0.2834,-0.0086,-0.0061,12.84368833,77.66284667,0.97128081,868.20000000,
7.248910,-0.1037,1.2941,-0.0555,0.2834,-0.0086,-0.0061,12.84368833,77.66284667,0.97128081,868.20000000,
7.250481,-0.1037,1.2941,-0.0555,0.2034,-0.1124,0.0660,12.84368833,77.66284667,0.97128081,868.20000000,
7.267092,-0.1037,1.2941,-0.0555,0.2034,-0.1124,0.0660,12.84368833,77.66284667,0.97128081,868.20000000,
7.269150,0.2549,1.0932,0.5187,0.2034,-0.1124,0.0660,12.84368833,77.66284667,0.97128081,868.20000000,
7.270445,0.2549,1.0932,0.5187,0.0935,-0.2059,0.0666,12.84368833,77.66284667,0.97128081,868.20000000,
7.287959,0.2549,1.0932,0.5187,0.0935,-0.2059,0.0666,12.84368833,77.66284667,0.97128081,868.20000000,
7.291538,0.2549,1.0932,0.5187,0.0024,-0.2932,0.0373,12.84368833,77.66284667,0.97128081,868.20000000,
7.292868,0.5903,0.8242,1.3245,0.0024,-0.2932,0.0373,12.84368833,77.66284667,0.97128081,868.20000000,
7.306116,0.5903,0.8242,1.3245,0.0024,-0.2932,0.0373,12.84368833,77.66284667,0.97128081,868.20000000,
7.307898,0.6387,0.6131,2.1532,0.0024,-0.2932,0.0373,12.84368833,77.66284667,0.97128081,868.20000000,
7.309258,0.6387,0.6131,2.1532,-0.0043,-0.2205,-0.0079,12.84368833,77.66284667,0.97128081,868.20000000,
7.325817,0.6387,0.6131,2.1532,-0.0043,-0.2205,-0.0079,12.84368833,77.66284667,0.97128081,868.20000000,
7.327618,0.2627,0.3146,2.1462,-0.0043,-0.2205,-0.0079,12.84368833,77.66284667,0.97128081,868.20000000,
7.328786,0.2627,0.3146,2.1462,0.1429,0.0996,-0.0629,12.84368833,77.66284667,0.97128081,868.20000000,
7.346844,0.2627,0.3146,2.1462,0.1429,0.0996,-0.0629,12.84368833,77.66284667,0.97128081,868.20000000,
7.349767,0.2627,0.3146,2.1462,0.2126,0.3024,-0.0788,12.84368833,77.66284667,0.97128081,868.20000000,
7.351345,-0.6008,0.3620,1.1369,0.2126,0.3024,-0.0788,12.84368833,77.66284667,0.97128081,868.20000000,
7.366446,-0.6008,0.3620,1.1369,0.2126,0.3024,-0.0788,12.84368833,77.66284667,0.97128081,868.20000000,
7.369096,-1.0904,0.4324,0.2228,0.2126,0.3024,-0.0788,12.84368833,77.66284667,0.97128081,868.20000000,
7.370710,-1.0904,0.4324,0.2228,0.0782,0.2382,-0.0177,12.84368833,77.66284667,0.97128081,868.20000000,
7.385681,-1.0904,0.4324,0.2228,0.0782,0.2382,-0.0177,12.84368833,77.66284667,0.97128081,868.20000000,
7.387482,-0.9765,0.3597,-0.0236,0.0782,0.2382,-0.0177,12.84368833,77.66284667,0.97128081,868.20000000,
7.388946,-0.9765,0.3597,-0.0236,-0.2114,0.0953,0.0098,12.84368833,77.66284667,0.97128081,868.20000000,
7.405979,-0.9765,0.3597,-0.0236,-0.2114,0.0953,0.0098,12.84368833,77.66284667,0.97128081,868.20000000,
7.407639,-0.9765,0.3597,-0.0236,-0.5211,-0.0031,-0.0183,12.84368833,77.66284667,0.97128081,868.20000000,
7.408497,-0.8856,0.0850,0.6582,-0.5211,-0.0031,-0.0183,12.84368833,77.66284667,0.97128081,868.20000000,
7.425609,-0.8856,0.0850,0.6582,-0.5211,-0.0031,-0.0183,12.84368833,77.66284667,0.97128081,868.20000000,
7.427348,-0.8856,0.0850,0.6582,-0.5620,0.0330,0.0079,12.84368833,77.66284667,0.97128081,868.20000000,
7.428607,-1.1026,-0.3084,1.5086,-0.5620,0.0330,0.0079,12.84368833,77.66284667,0.97128081,868.20000000,
7.446947,-1.1026,-0.3084,1.5086,-0.5620,0.0330,0.0079,12.84368833,77.66284667,0.97128081,868.20000000,
7.448755,-1.6092,-0.6505,1.7735,-0.5620,0.0330,0.0079,12.84368833,77.66284667,0.97128081,868.20000000,
7.450080,-1.6092,-0.6505,1.7735,-0.3787,0.0843,0.0965,12.84368833,77.66284667,0.97128081,868.20000000,
7.466926,-1.6092,-0.6505,1.7735,-0.3787,0.0843,0.0965,12.84368833,77.66284667,0.97128081,868.20000000,
7.469194,-1.9649,-0.8859,1.5133,-0.3787,0.0843,0.0965,12.84368833,77.66284667,0.97128081,868.20000000,
7.470684,-1.9649,-0.8859,1.5133,-0.0629,0.1411,0.2822,12.84368833,77.66284667,0.97128081,868.20000000,
7.486258,-1.9649,-0.8859,1.5133,-0.0629,0.1411,0.2822,12.84368833,77.66284667,0.97128081,868.20000000,
7.488346,-2.0064,-1.0133,0.6219,-0.0629,0.1411,0.2822,12.84368833,77.66284667,0.97128081,868.20000000,
7.489748,-2.0064,-1.0133,0.6219,0.2315,0.2627,0.5290,12.84368833,77.66284667,0.97128081,868.20000000,
7.506412,-2.0064,-1.0133,0.6219,0.2315,0.2627,0.5290,12.84368833,77.66284667,0.97128081,868.20000000,
7.508374,-1.8863,-0.6489,-0.5273,0.2315,0.2627,0.5290,12.84368833,77.66284667,0.97128081,868.20000000,
7.510118,-1.8863,-0.6489,-0.5273,0.3604,0.3879,0.7153,12.84368833,77.66284667,0.97128081,868.20000000,
7.526413,-1.8863,-0.6489,-0.5273,0.3604,0.3879,0.7153,12.84368833,77.66284667,0.97128081,868.20000000,
7.528553,-1.6202,-0.2273,-1.1067,0.3604,0.3879,0.7153,12.84368833,77.66284667,0.97128081,868.20000000,
7.529925,-1.6202,-0.2273,-1.1067,0.3036,0.3586,0.8070,12.84368833,77.66284667,0.97128081,868.20000000,
7.547177,-1.6202,-0.2273,-1.1067,0.3036,0.3586,0.8070,12.84368833,77.66284667,0.97128081,868.20000000,
7.549238,-0.9311,-0.2412,-1.3598,0.3036,0.3586,0.8070,12.84368833,77.66284667,0.97128081,868.20000000,
7.550640,-0.9311,-0.2412,-1.3598,0.1356,0.2566,0.7960,12.84368833,77.66284667,0.97128081,868.20000000,
7.565393,-0.9311,-0.2412,-1.3598,0.1356,0.2566,0.7960,12.84368833,77.66284667,0.97128081,868.20000000,
7.567574,-0.4695,-0.2984,-1.1265,0.1356,0.2566,0.7960,12.84368833,77.66284667,0.97128081,868.20000000,
7.568998,-0.4695,-0.2984,-1.1265,-0.0904,0.0916,0.7086,12.84368833,77.66284667,0.97128081,868.20000000,
7.585859,-0.4695,-0.2984,-1.1265,-0.0904,0.0916,0.7086,12.84368833,77.66284667,0.97128081,868.20000000,
7.587928,-0.4925,-0.3920,-0.3657,-0.0904,0.0916,0.7086,12.84368833,77.66284667,0.97128081,868.20000000,
7.589319,-0.4925,-0.3920,-0.3657,-0.2737,-0.1607,0.6347,12.84368833,77.66284667,0.97128081,868.20000000,
7.606260,-0.4925,-0.3920,-0.3657,-0.2737,-0.1607,0.6347,12.84368833,77.66284667,0.97128081,868.20000000,
7.608223,-0.4925,-0.3920,-0.3657,-0.3140,-0.4007,0.5974,12.84368833,77.66284667,0.97128081,868.20000000,
7.609717,-0.3932,-0.7635,0.5072,-0.3140,-0.4007,0.5974,12.84368833,77.66284667,0.97128081,868.20000000,
7.626270,-0.3932,-0.7635,0.5072,-0.3140,-0.4007,0.5974,12.84368833,77.66284667,0.97128081,868.20000000,
7.628074,-0.1642,-0.9534,1.0053,-0.3140,-0.4007,0.5974,12.84368833,77.66284667,0.97128081,868.20000000,
7.629402,-0.1642,-0.9534,1.0053,-0.2688,-0.4215,0.5596,12.84368833,77.66284667,0.97128081,868.20000000,
7.646801,-0.1642,-0.9534,1.0053,-0.2688,-0.4215,0.5596,12.84368833,77.66284667,0.97128081,868.20000000,
7.648980,-0.1380,-0.8624,1.1962,-0.2688,-0.4215,0.5596,12.84368833,77.66284667,0.97128081,868.20000000,
7.650917,-0.1380,-0.8624,1.1962,-0.1533,-0.1918,0.5486,12.84368833,77.66284667,0.97128081,868.20000000,
7.665718,-0.1380,-0.8624,1.1962,-0.1533,-0.1918,0.5486,12.84368833,77.66284667,0.97128081,868.20000000,
7.667676,-0.1380,-0.8624,1.1962,0.0140,0.1723,0.5559,12.84368833,77.66284667,0.97128081,868.20000000,
7.669076,-0.2807,-0.8624,0.9463,0.0140,0.1723,0.5559,12.84368833,77.66284667,0.97128081,868.20000000,
7.685609,-0.2807,-0.8624,0.9463,0.0140,0.1723,0.5559,12.84368833,77.66284667,0.97128081,868.20000000,
7.687565,-0.4136,-1.0056,0.1006,0.0140,0.1723,0.5559,12.84368833,77.66284667,0.97128081,868.20000000,
7.689219,-0.4136,-1.0056,0.1006,0.2419,0.4520,0.5736,12.84368833,77.66284667,0.97128081,868.20000000,
7.706807,-0.4136,-1.0056,0.1006,0.2419,0.4520,0.5736,12.84368833,77.66284667,0.97128081,868.20000000,
7.708809,-0.4970,-0.9421,-1.1284,0.2419,0.4520,0.5736,12.84368833,77.66284667,0.97128081,868.20000000,
7.710220,-0.4970,-0.9421,-1.1284,0.3561,0.5840,0.6078,12.84368833,77.66284667,0.97128081,868.20000000,
7.726504,-0.4970,-0.9421,-1.1284,0.3561,0.5840,0.6078,12.84368833,77.66284667,0.97128081,868.20000000,
7.728243,-0.4970,-0.9421,-1.1284,0.3506,0.5137,0.6451,12.84368833,77.66284667,0.97128081,868.20000000,
7.729581,-0.1617,-0.7567,-1.9982,0.3506,0.5137,0.6451,12.84368833,77.66284667,0.97128081,868.20000000,
7.746865,-0.1617,-0.7567,-1.9982,0.3506,0.5137,0.6451,12.84368833,77.66284667,0.97128081,868.20000000,
7.748982,-0.1617,-0.7567,-1.9982,0.2706,0.3445,0.6243,12.84368833,77.66284667,0.97128081,868.20000000,
7.750323,0.1649,-0.3809,-2.3370,0.2706,0.3445,0.6243,12.84368833,77.66284667,0.97128081,868.20000000,
7.766516,0.1649,-0.3809,-2.3370,0.2706,0.3445,0.6243,12.84368833,77.66284667,0.97128081,868.20000000,
7.768318,0.5988,-0.1651,-2.2083,0.2706,0.3445,0.6243,12.84368833,77.66284667,0.97128081,868.20000000,
7.769714,0.5988,-0.1651,-2.2083,0.1753,0.1100,0.5376,12.84368833,77.66284667,0.97128081,868.20000000,
7.786174,0.5988,-0.1651,-2.2083,0.1753,0.1100,0.5376,12.84368833,77.66284667,0.97128081,868.20000000,
7.788504,0.5988,-0.1651,-2.2083,0.1344,0.0043,0.3647,12.84368833,77.66284667,0.97128081,868.20000000,
7.791218,1.1008,-0.0535,-1.9034,0.1344,0.0043,0.3647,12.84368833,77.66284667,0.97128081,868.20000000,
7.806077,1.1008,-0.0535,-1.9034,0.1344,0.0043,0.3647,12.84368833,77.66284667,0.97128081,868.20000000,
7.808299,1.1008,-0.0535,-1.9034,0.0849,-0.0318,0.1778,12.84368833,77.66284667,0.97128081,868.20000000,
7.809328,1.0972,-0.0604,-1.7615,0.0849,-0.0318,0.1778,12.84368833,77.66284667,0.97128081,868.20000000,
7.826671,1.0972,-0.0604,-1.7615,0.0849,-0.0318,0.1778,12.84368833,77.66284667,0.97128081,868.20000000,
7.828561,1.0972,-0.0604,-1.7615,-0.0024,-0.0458,0.0800,12.84368833,77.66284667,0.97128081,868.20000000,
7.829762,0.9874,-0.1342,-1.5554,-0.0024,-0.0458,0.0800,12.84368833,77.66284667,0.97128081,868.20000000,
7.846271,0.9874,-0.1342,-1.5554,-0.0024,-0.0458,0.0800,12.84368833,77.66284667,0.97128081,868.20000000,
7.848294,1.0029,-0.0309,-1.1008,-0.0024,-0.0458,0.0800,12.84368833,77.66284667,0.97128081,868.20000000,
7.849653,1.0029,-0.0309,-1.1008,-0.1075,0.0226,0.0140,12.84368833,77.66284667,0.97128081,868.20000000,
7.865998,1.0029,-0.0309,-1.1008,-0.1075,0.0226,0.0140,12.84368833,77.66284667,0.97128081,868.20000000,
7.868488,1.0111,0.0419,-0.2571,-0.1075,0.0226,0.0140,12.84368833,77.66284667,0.97128081,868.20000000,
7.869831,1.0111,0.0419,-0.2571,-0.1594,0.1277,-0.0562,12.84368833,77.66284667,0.97128081,868.20000000,
7.886988,1.0111,0.0419,-0.2571,-0.1594,0.1277,-0.0562,12.84368833,77.66284667,0.97128081,868.20000000,
7.890660,1.0111,0.0419,-0.2571,-0.0776,0.1949,-0.1179,12.84368833,77.66284667,0.97128081,868.20000000,
7.892089,0.8860,0.0103,0.4387,-0.0776,0.1949,-0.1179,12.84368833,77.66284667,0.97128081,868.20000000,
7.906234,0.8860,0.0103,0.4387,-0.0776,0.1949,-0.1179,12.84368833,77.66284667,0.97128081,868.20000000,
7.908200,0.8860,0.0103,0.4387,0.0922,0.1283,-0.1533,12.84368833,77.66284667,0.97128081,868.20000000,
7.909348,0.8022,-0.0018,0.6478,0.0922,0.1283,-0.1533,12.84368833,77.66284667,0.97128081,868.20000000,
7.927261,0.8022,-0.0018,0.6478,0.0922,0.1283,-0.1533,12.84368833,77.66284667,0.97128081,868.20000000,
7.928902,0.8013,0.0703,0.1744,0.0922,0.1283,-0.1533,12.84368833,77.66284667,0.97128081,868.20000000,
7.930257,0.8013,0.0703,0.1744,0.1552,-0.0257,-0.1894,12.84368833,77.66284667,0.97128081,868.20000000,
7.947062,0.8013,0.0703,0.1744,0.1552,-0.0257,-0.1894,12.84368833,77.66284667,0.97128081,868.20000000,
7.948869,0.8013,0.0703,0.1744,-0.0177,-0.2505,-0.2358,12.84368833,77.66284667,0.97128081,868.20000000,
7.950002,0.9144,0.1319,-0.0129,-0.0177,-0.2505,-0.2358,12.84368833,77.66284667,0.97128081,868.20000000,
7.966230,0.9144,0.1319,-0.0129,-0.0177,-0.2505,-0.2358,12.84368833,77.66284667,0.97128081,868.20000000,
7.967976,1.0314,0.0543,0.6536,-0.0177,-0.2505,-0.2358,12.84368833,77.66284667,0.97128081,868.20000000,
7.969202,1.0314,0.0543,0.6536,-0.2456,-0.3977,-0.3238,12.84368833,77.66284667,0.97128081,868.20000000,
7.985968,1.0314,0.0543,0.6536,-0.2456,-0.3977,-0.3238,12.84368833,77.66284667,0.97128081,868.20000000,
7.987927,0.6852,-0.0185,1.3647,-0.2456,-0.3977,-0.3238,12.84368833,77.66284667,0.97128081,868.20000000,
7.989204,0.6852,-0.0185,1.3647,-0.2737,-0.2657,-0.3812,12.84368833,77.66284667,0.97128081,868.20000000,
8.006514,0.6852,-0.0185,1.3647,-0.2737,-0.2657,-0.3812,12.84368833,77.66284667,0.97128081,868.20000000,
8.008355,0.1903,-0.0242,0.9182,-0.2737,-0.2657,-0.3812,12.84368833,77.66284667,0.97128081,868.20000000,
8.009872,0.1903,-0.0242,0.9182,-0.2016,-0.0702,-0.4013,12.84368833,77.66284667,0.97128081,868.20000000,
8.026567,0.1903,-0.0242,0.9182,-0.2016,-0.0702,-0.4013,12.84368833,77.66284667,0.97128081,868.20000000,
8.028446,0.1903,-0.0242,0.9182,-0.2999,-0.0977,-0.3916,12.84368833,77.66284667,0.97128081,868.20000000,
8.029629,-0.1828,0.2475,-0.0266,-0.2999,-0.0977,-0.3916,12.84368833,77.66284667,0.97128081,868.20000000,
8.045722,-0.1828,0.2475,-0.0266,-0.2999,-0.0977,-0.3916,12.84368833,77.66284667,0.97128081,868.20000000,
8.047344,0.0606,0.3036,-0.2579,-0.2999,-0.0977,-0.3916,12.84368833,77.66284667,0.97128081,868.20000000,
8.048847,0.0606,0.3036,-0.2579,-0.5815,-0.4349,-0.3555,12.84368833,77.66284667,0.97128081,868.20000000,
8.066279,0.0606,0.3036,-0.2579,-0.5815,-0.4349,-0.3555,12.84368833,77.66284667,0.97128081,868.20000000,
8.068326,0.8836,0.2785,0.6560,-0.5815,-0.4349,-0.3555,12.84368833,77.66284667,0.97128081,868.20000000,
8.069718,0.8836,0.2785,0.6560,-0.9517,-0.7465,-0.4074,12.84368833,77.66284667,0.97128081,868.20000000,
8.085957,0.8836,0.2785,0.6560,-0.9517,-0.7465,-0.4074,12.84368833,77.66284667,0.97128081,868.20000000,
8.087629,1.2581,0.0811,2.4208,-0.9517,-0.7465,-0.4074,12.84368833,77.66284667,0.97128081,868.20000000,
8.089184,1.2581,0.0811,2.4208,-1.1863,-0.7025,-0.4917,12.84368833,77.66284667,0.97128081,868.20000000,
8.107203,1.2581,0.0811,2.4208,-1.1863,-0.7025,-0.4917,12.84368833,77.66284667,0.97128081,868.20000000,
8.109171,1.2581,0.0811,2.4208,-0.9139,-0.1631,-0.5608,12.84368833,77.66284667,0.97128081,868.20000000,
8.111038,0.9964,-0.2850,4.1463,-0.9139,-0.1631,-0.5608,12.84368833,77.66284667,0.97128081,868.20000000,
8.126767,0.9964,-0.2850,4.1463,-0.9139,-0.1631,-0.5608,12.84368833,77.66284667,0.97128081,868.20000000,
8.130223,0.9964,-0.2850,4.1463,-0.2364,0.4649,-0.5235,12.84368833,77.66284667,0.97128081,868.20000000,
8.131912,0.2925,-0.6891,4.1156,-0.2364,0.4649,-0.5235,12.84368833,77.66284667,0.97128081,868.20000000,
8.145726,0.2925,-0.6891,4.1156,-0.2364,0.4649,-0.5235,12.84368833,77.66284667,0.97128081,868.20000000,
8.147413,0.2925,-0.6891,4.1156,0.4081,0.8161,-0.3555,12.84368833,77.66284667,0.97128081,868.20000000,
8.148824,-0.0664,-0.8962,2.1469,0.4081,0.8161,-0.3555,12.84368833,77.66284667,0.97128081,868.20000000,
8.166210,-0.0664,-0.8962,2.1469,0.4081,0.8161,-0.3555,12.84368833,77.66284667,0.97128081,868.20000000,
8.168030,0.2797,-0.6574,-0.0037,0.4081,0.8161,-0.3555,12.84368833,77.66284667,0.97128081,868.20000000,
8.169546,0.2797,-0.6574,-0.0037,0.6060,0.6921,-0.2297,12.84368833,77.66284667,0.97128081,868.20000000,
8.186907,0.2797,-0.6574,-0.0037,0.6060,0.6921,-0.2297,12.84368833,77.66284667,0.97128081,868.20000000,
8.188813,0.7241,-0.1089,-1.1994,0.6060,0.6921,-0.2297,12.84368833,77.66284667,0.97128081,868.20000000,
8.190439,0.7241,-0.1089,-1.1994,0.4178,0.3140,-0.2492,12.84368833,77.66284667,0.97128081,868.20000000,
8.206350,0.7241,-0.1089,-1.1994,0.4178,0.3140,-0.2492,12.84368833,77.66284667,0.97128081,868.20000000,
8.208297,1.2570,0.0153,-1.2293,0.4178,0.3140,-0.2492,12.84368833,77.66284667,0.97128081,868.20000000,
8.209907,1.2570,0.0153,-1.2293,0.1203,-0.1167,-0.4007,12.84368833,77.66284667,0.97128081,868.20000000,
8.225958,1.2570,0.0153,-1.2293,0.1203,-0.1167,-0.4007,12.84368833,77.66284667,0.97128081,867.60000000,
8.227588,1.4795,-0.4933,-0.6704,0.1203,-0.1167,-0.4007,12.84370500,77.66282333,1.19878805,867.60000000,
8.229387,1.4795,-0.4933,-0.6704,-0.0745,-0.4276,-0.6243,12.84370500,77.66282333,1.19878805,867.60000000,
8.246438,1.4795,-0.4933,-0.6704,-0.0745,-0.4276,-0.6243,12.84370500,77.66282333,1.19878805,867.60000000,
8.248227,0.9799,-0.5721,-0.2809,-0.0745,-0.4276,-0.6243,12.84370500,77.66282333,1.19878805,867.60000000,
8.249568,0.9799,-0.5721,-0.2809,-0.1252,-0.3256,-0.7269,12.84370500,77.66282333,1.19878805,867.60000000,
8.266051,0.9799,-0.5721,-0.2809,-0.1252,-0.3256,-0.7269,12.84370500,77.66282333,1.19878805,867.60000000,
8.269303,0.3395,-0.4851,-0.4315,-0.1252,-0.3256,-0.7269,12.84370500,77.66282333,1.19878805,867.60000000,
8.270653,0.3395,-0.4851,-0.4315,-0.0764,-0.0220,-0.7294,12.84370500,77.66282333,1.19878805,867.60000000,
8.287891,0.3395,-0.4851,-0.4315,-0.0764,-0.0220,-0.7294,12.84370500,77.66282333,1.19878805,867.60000000,
8.291016,0.3395,-0.4851,-0.4315,-0.0220,0.2779,-0.6842,12.84370500,77.66282333,1.19878805,867.60000000,
8.292602,-0.3005,-0.2552,-1.1394,-0.0220,0.2779,-0.6842,12.84370500,77.66282333,1.19878805,867.60000000,
8.307825,-0.3005,-0.2552,-1.1394,-0.0220,0.2779,-0.6842,12.84370500,77.66282333,1.19878805,867.60000000,
8.309581,-0.3005,-0.2552,-1.1394,0.0055,0.3763,-0.6011,12.84370500,77.66282333,1.19878805,867.60000000,
8.310938,-0.5483,-0.0205,-1.6550,0.0055,0.3763,-0.6011,12.84370500,77.66282333,1.19878805,867.60000000,
8.326369,-0.5483,-0.0205,-1.6550,0.0055,0.3763,-0.6011,12.84370500,77.66282333,1.19878805,867.60000000,
8.328325,-0.5483,-0.0205,-1.6550,0.0226,0.2572,-0.5241,12.84370500,77.66282333,1.19878805,867.60000000,
8.329509,-0.4975,0.1834,-1.9484,0.0226,0.2572,-0.5241,12.84370500,77.66282333,1.19878805,867.60000000,
8.346054,-0.4975,0.1834,-1.9484,0.0226,0.2572,-0.5241,12.84370500,77.66282333,1.19878805,867.60000000,
8.347811,-0.3916,0.4230,-2.0157,0.0226,0.2572,-0.5241,12.84370500,77.66282333,1.19878805,867.60000000,
8.349247,-0.3916,0.4230,-2.0157,0.0305,0.0269,-0.4594,12.84370500,77.66282333,1.19878805,867.60000000,
8.366279,-0.3916,0.4230,-2.0157,0.0305,0.0269,-0.4594,12.84370500,77.66282333,1.19878805,867.60000000,
8.368233,-0.2774,0.5632,-1.9927,0.0305,0.0269,-0.4594,12.84370500,77.66282333,1.19878805,867.60000000,
8.369665,-0.2774,0.5632,-1.9927,0.0189,-0.1594,-0.4068,12.84370500,77.66282333,1.19878805,867.60000000,
8.385842,-0.2774,0.5632,-1.9927,0.0189,-0.1594,-0.4068,12.84370500,77.66282333,1.19878805,867.60000000,
8.387895,-0.1006,0.5689,-1.9137,0.0189,-0.1594,-0.4068,12.84370500,77.66282333,1.19878805,867.60000000,
8.389291,-0.1006,0.5689,-1.9137,-0.0214,-0.2517,-0.3891,12.84370500,77.66282333,1.19878805,867.60000000,
8.407098,-0.1006,0.5689,-1.9137,-0.0214,-0.2517,-0.3891,12.84370500,77.66282333,1.19878805,867.60000000,
8.409031,0.1464,0.5868,-1.5734,-0.0214,-0.2517,-0.3891,12.84370500,77.66282333,1.19878805,867.60000000,
8.410410,0.1464,0.5868,-1.5734,-0.0953,-0.2560,-0.4056,12.84370500,77.66282333,1.19878805,867.60000000,
8.426227,0.1464,0.5868,-1.5734,-0.0953,-0.2560,-0.4056,12.84370500,77.66282333,1.19878805,867.60000000,
8.427767,0.1442,0.6593,-1.1214,-0.0953,-0.2560,-0.4056,12.84370500,77.66282333,1.19878805,867.60000000,
8.428996,0.1442,0.6593,-1.1214,-0.1753,-0.2205,-0.4380,12.84370500,77.66282333,1.19878805,867.60000000,
8.445944,0.1442,0.6593,-1.1214,-0.1753,-0.2205,-0.4380,12.84370500,77.66282333,1.19878805,867.60000000,
8.447717,-0.0440,0.6729,-0.6774,-0.1753,-0.2205,-0.4380,12.84370500,77.66282333,1.19878805,867.60000000,
8.449459,-0.0440,0.6729,-0.6774,-0.2706,-0.1692,-0.4649,12.84370500,77.66282333,1.19878805,867.60000000,
8.466289,-0.0440,0.6729,-0.6774,-0.2706,-0.1692,-0.4649,12.84370500,77.66282333,1.19878805,867.60000000,
8.468041,-0.4506,0.7457,-0.0086,-0.2706,-0.1692,-0.4649,12.84370500,77.66282333,1.19878805,867.60000000,
8.469339,-0.4506,0.7457,-0.0086,-0.3635,-0.1368,-0.4056,12.84370500,77.66282333,1.19878805,867.60000000,
8.486554,-0.4506,0.7457,-0.0086,-0.3635,-0.1368,-0.4056,12.84370500,77.66282333,1.19878805,867.60000000,
8.488768,-0.5585,0.7183,0.9458,-0.3635,-0.1368,-0.4056,12.84370500,77.66282333,1.19878805,867.60000000,
8.490529,-0.5585,0.7183,0.9458,-0.3366,-0.0806,-0.2883,12.84370500,77.66282333,1.19878805,867.60000000,
8.507142,-0.5585,0.7183,0.9458,-0.3366,-0.0806,-0.2883,12.84370500,77.66282333,1.19878805,867.60000000,
8.508937,-0.5585,0.7183,0.9458,-0.1448,0.0165,-0.1918,12.84370500,77.66282333,1.19878805,867.60000000,
8.510481,-0.6006,0.5629,1.6717,-0.1448,0.0165,-0.1918,12.84370500,77.66282333,1.19878805,867.60000000,
8.526180,-0.6006,0.5629,1.6717,-0.1448,0.0165,-0.1918,12.84370500,77.66282333,1.19878805,867.60000000,
8.528188,-0.7910,0.5649,1.7239,-0.1448,0.0165,-0.1918,12.84370500,77.66282333,1.19878805,867.60000000,
8.529380,-0.7910,0.5649,1.7239,0.1491,0.1576,-0.0696,12.84370500,77.66282333,1.19878805,867.60000000,
8.546606,-0.7910,0.5649,1.7239,0.1491,0.1576,-0.0696,12.84370500,77.66282333,1.19878805,867.60000000,
8.548874,-1.1357,0.7277,1.2854,0.1491,0.1576,-0.0696,12.84370500,77.66282333,1.19878805,867.60000000,
8.550159,-1.1357,0.7277,1.2854,0.3207,0.1759,0.0666,12.84370500,77.66282333,1.19878805,867.60000000,
8.565977,-1.1357,0.7277,1.2854,0.3207,0.1759,0.0666,12.84370500,77.66282333,1.19878805,867.60000000,
